Folder: Scientific_Analysis_MN/OriginPro/EIS (part 7)

File: C0_MS_pH10_01.DTA
EXPLAIN
TAG	MOTTSCHOTTKY
TITLE	LABEL	Mott-Schottky	Test &Identifier
DATE	LABEL	29-10-2009	Date
TIME	LABEL	23:17:24	Time
NOTES	NOTES	2	&Notes...
	Si/SiO2
	T=25.3oC
PSTAT	PSTAT	REF600-07089	Potentiostat
VINIT	POTEN	3.00000E+000	F	Initial &Voltage (V)
VFINAL	POTEN	-3.00000E+000	F	Final &Voltage (V)
VSTEP	QUANT	1.00000E-001	&Voltage Step (V)
FREQINIT	QUANT	1.00000E+003	Fre&quency (Hz)
VAC	QUANT	1.00000E+001	AC &Voltage (mV rms)
AREA	QUANT	1.00000E-002	&Area (cm^2)
CONDIT	TWOPARAM	T	2.00000E+001	3.00000E+000	Conditionin&g	Time(s)	E(V)
DELAY	TWOPARAM	T	2.50000E-001	0.00000E+000	Init. De&lay	Time(s)	Stab.(mV/s)
SPEED	SELECTOR	1	&Optimize for:
ZGUESS	QUANT	1.00000E+002	E&stimated Z (ohms)
OCVCURVE	TABLE	1
	Pt	T	Vf	Vm	Ach	Over
	#	s	V vs. Ref.	V	V	bits
	0	0.258333	3.65977E+000	0.00000E+000	1.42297E-004	.............
EOC	QUANT	3.65977	Open Circuit (V)
PSTATMODEL	IQUANT	4	Pstat Model
PSTATSECTION	LABEL	REF600-07089	Pstat Section
PSTATSERIALNO	LABEL	07089	Pstat Serial Number
CTRLMODE	IQUANT	1	Control Mode
IESTAB	IQUANT	0	I/E Stability
CASPEED	IQUANT	2	Control Amp Speed
CONVENTION	IQUANT	1	Current Convention
ICHRANGE	IQUANT	2	Ich Range
ICHRANGEMODE	TOGGLE	F	Ich Auto Range
ICHOFFSETENABLE	TOGGLE	T	Ich Offset Enable
ICHOFFSET	QUANT	0	Ich Offset (V)
ICHFILTER	IQUANT	3	Ich Filter
VCHRANGE	IQUANT	2	Vch Range
VCHRANGEMODE	TOGGLE	F	Vch Auto Range
VCHOFFSETENABLE	TOGGLE	T	Vch Offset Enable
VCHOFFSET	QUANT	0	Vch Offset (V)
VCHFILTER	IQUANT	3	Vch Filter
ACHRANGE	IQUANT	2	Ach Range
ACHOFFSETENABLE	TOGGLE	F	Ach Offset Enable
ACHOFFSET	QUANT	0	Ach Offset (V)
ACHFILTER	IQUANT	2	Ach Filter
IERANGELOWERLIMIT	IQUANT	1	I/E Range Lower Limit
IERANGEMODE	TOGGLE	F	I/E AutoRange
IERANGE	IQUANT	10	I/E Range
POSFEEDENABLE	TOGGLE	F	Positive Feedback IR Comp
POSFEEDRESISTANCE	QUANT	0	Positive Feedback Resistance (ohm)
ACHSELECT	IQUANT	0	Ach Select
CABLEID	IQUANT	14	Cable ID
DCCALDATE	LABEL	14-4-2009	DC Calibration Date
ACCALDATE	LABEL	14-4-2009	AC Calibration Date
THERMOSELECT	IQUANT	0	Thermo Select
FRAMEWORKVERSION	QUANT	5.5	Framework Version
INSTRUMENTVERSION	LABEL	2.00	Instrument Version
ZCURVE	TABLE
	Pt	Time	Freq	Zreal	Zimag	Zsig	Zmod	Zphz	Idc	Vdc	IERange
	#	s	Hz	ohm	ohm	V	ohm	°	A	V	#
	0	10	998.26	1202.01	-18324.9	1	18364.3	-86.2471	1.84114E-008	2.99891	7
	1	15	998.26	1230.27	-18343.3	1	18384.5	-86.163	1.41643E-008	2.89895	7
	2	21	998.26	1275.97	-18356.1	1	18400.4	-86.0237	1.20937E-008	2.799	7
	3	26	998.26	1327.61	-18379.8	1	18427.7	-85.8686	3.34142E-009	2.69903	7
	4	32	998.26	1283.12	-18368.3	1	18413.1	-86.0041	5.38432E-009	2.59905	7
	5	37	998.26	1275.48	-18409.7	1	18453.9	-86.0367	7.0184E-009	2.49913	7
	6	43	998.26	1298.38	-18441.2	1	18486.9	-85.9726	2.91185E-009	2.39916	7
	7	49	998.26	1269.03	-18475.1	1	18518.6	-86.0706	1.27326E-009	2.29921	7
	8	54	998.26	1264.29	-18620.5	1	18663.4	-86.1157	1.13376E-008	2.19925	7
	9	60	998.26	1267.88	-18517	1	18560.3	-86.083	1.98889E-009	2.09927	7
	10	66	998.26	1264.27	-18614.6	1	18657.5	-86.1145	1.24604E-008	1.99932	7
	11	71	998.26	1261.36	-18648.2	1	18690.8	-86.1304	1.19818E-008	1.89939	7
	12	77	998.26	1259.36	-18751.3	1	18793.5	-86.1577	2.28537E-009	1.79935	7
	13	82	998.26	1293.33	-18779.8	1	18824.3	-86.0604	2.69428E-009	1.69945	7
	14	88	998.26	1275.23	-18810.9	1	18854.1	-86.1217	1.00197E-008	1.59959	7
	15	96	998.26	1291.82	-18791.4	1	18835.7	-86.0674	7.11772E-009	1.49962	7
	16	105	998.26	1284.3	-18946.9	1	18990.4	-86.1222	8.40869E-009	1.39964	7
	17	113	998.26	1303.2	-19103.5	1	19147.9	-86.0975	5.5985E-009	1.29968	7
	18	121	998.26	1261.15	-19152.4	1	19193.9	-86.2326	1.25985E-008	1.19976	7
	19	129	998.26	1255.78	-19367.6	1	19408.3	-86.2902	1.29017E-008	1.09973	7
	20	140	998.26	1293.94	-19484.8	1	19527.7	-86.2007	1.31399E-008	0.99975	7
	21	154	998.26	1327.83	-19632.8	1	19677.7	-86.1308	1.33282E-008	0.899796	7
	22	160	998.26	1288.51	-19829.9	1	19871.7	-86.2822	8.31875E-009	0.799836	7
	23	166	998.26	1281.69	-19987.2	1	20028.3	-86.3309	-1.46642E-010	0.699868	7
	24	171	998.26	1329.8	-20243.8	1	20287.4	-86.2417	7.1778E-009	0.599914	7
	25	177	998.26	1276.58	-20456.2	1	20496	-86.4291	1.3454E-009	0.499955	7
	26	183	998.26	1247.32	-20727.9	1	20765.4	-86.5563	9.5394E-009	0.400016	7
	27	188	998.26	1301.43	-21059.9	1	21100	-86.4638	3.27118E-009	0.300063	7
	28	194	998.26	1343.11	-21404.1	1	21446.2	-86.4094	9.87191E-010	0.200084	7
	29	200	998.26	1331.77	-21673.1	1	21714	-86.4837	1.09244E-008	0.100186	7
	30	205	998.26	1341.63	-22034.8	1	22075.7	-86.5158	1.07451E-008	0.000218	7
	31	211	998.26	1354.47	-22332.1	1	22373.1	-86.5292	1.00066E-008	-0.100019	7
	32	216	998.26	1421.36	-22614.6	1	22659.3	-86.4036	2.53844E-010	-0.199983	7
	33	222	998.26	1522.63	-22907.6	1	22958.2	-86.1972	2.06763E-009	-0.299958	7
	34	228	998.26	1431.16	-23364	1	23407.8	-86.4947	1.11569E-008	-0.399863	7
	35	233	998.26	1661.24	-23775.6	1	23833.5	-86.0031	6.75508E-009	-0.499849	7
	36	239	998.26	1568.6	-24292.2	1	24342.8	-86.3054	3.78992E-009	-0.599805	7
	37	245	998.26	1573.65	-24790.3	1	24840.2	-86.3678	3.18879E-009	-0.699769	7
	38	251	998.26	1492.41	-25287.6	1	25331.6	-86.6225	9.2034E-010	-0.799705	7
	39	256	998.26	1355.88	-25717.5	1	25753.3	-86.9821	8.24143E-010	-0.899677	7
	40	262	998.26	1434.38	-25990.7	1	26030.2	-86.8411	7.68718E-010	-0.99964	7
	41	268	998.26	1328.47	-26296.7	1	26330.2	-87.108	1.08355E-008	-1.09967	7
	42	273	998.26	1372	-26524.6	1	26560.1	-87.039	7.09149E-009	-1.19962	7
	43	279	998.26	1361.7	-26924.3	1	26958.7	-87.1047	1.82695E-009	-1.29958	7
	44	284	998.26	1423.98	-27339.9	1	27377	-87.0185	8.64055E-009	-1.39954	7
	45	289	998.26	1454.5	-27289.9	1	27328.6	-86.9491	4.36954E-009	-1.49952	7
	46	295	998.26	1467.2	-27717.9	1	27756.7	-86.97	5.35847E-009	-1.59943	7
	47	300	998.26	1449.08	-27797.2	1	27835	-87.0159	1.62197E-009	-1.69938	7
	48	306	998.26	1486.34	-28054.6	1	28093.9	-86.9673	8.2205E-009	-1.79931	7
	49	312	998.26	1464.23	-28079.8	1	28117.9	-87.015	2.34327E-010	-1.89932	7
	50	317	998.26	1497.79	-28123.2	1	28163	-86.9514	7.20781E-009	-1.99924	7
	51	323	998.26	1569.41	-28063.6	1	28107.4	-86.7992	5.09226E-010	-2.09924	7
	52	329	998.26	1468.72	-28208.2	1	28246.4	-87.0195	1.22039E-008	-2.19917	7
	53	334	998.26	1597.76	-28103.5	1	28148.8	-86.7461	1.61959E-009	-2.2992	7
	54	340	998.26	1428.32	-28102.2	1	28138.5	-87.0904	1.05791E-008	-2.39908	7
	55	346	998.26	1508.08	-28175.7	1	28216.1	-86.9362	7.60578E-009	-2.49906	7
	56	351	998.26	1440.5	-27853.2	1	27890.4	-87.0394	9.46138E-009	-2.59901	7
	57	357	998.26	1321.64	-27976.4	1	28007.6	-87.2953	5.54157E-009	-2.699	7
	58	362	998.26	1460.94	-27805.3	1	27843.7	-86.9923	1.39849E-008	-2.79896	7
	59	368	998.26	1632.49	-27767.6	1	27815.6	-86.6354	1.33713E-009	-2.8989	7
	60	373	998.26	1681.39	-27713.3	1	27764.3	-86.5281	-6.56957E-010	-2.99889	7

File: C0_MS_pH10_02.DTA
EXPLAIN
TAG	MOTTSCHOTTKY
TITLE	LABEL	Mott-Schottky	Test &Identifier
DATE	LABEL	29-10-2009	Date
TIME	LABEL	23:24:27	Time
NOTES	NOTES	2	&Notes...
	Si/SiO2
	T=25.3oC
PSTAT	PSTAT	REF600-07089	Potentiostat
VINIT	POTEN	3.00000E+000	F	Initial &Voltage (V)
VFINAL	POTEN	-3.00000E+000	F	Final &Voltage (V)
VSTEP	QUANT	1.00000E-001	&Voltage Step (V)
FREQINIT	QUANT	1.00000E+003	Fre&quency (Hz)
VAC	QUANT	1.00000E+001	AC &Voltage (mV rms)
AREA	QUANT	1.00000E-002	&Area (cm^2)
CONDIT	TWOPARAM	T	2.00000E+001	3.00000E+000	Conditionin&g	Time(s)	E(V)
DELAY	TWOPARAM	T	2.50000E-001	0.00000E+000	Init. De&lay	Time(s)	Stab.(mV/s)
SPEED	SELECTOR	1	&Optimize for:
ZGUESS	QUANT	1.00000E+002	E&stimated Z (ohms)
OCVCURVE	TABLE	1
	Pt	T	Vf	Vm	Ach	Over
	#	s	V vs. Ref.	V	V	bits
	0	0.258333	3.64802E+000	0.00000E+000	6.31926E-005	.............
EOC	QUANT	3.64802	Open Circuit (V)
PSTATMODEL	IQUANT	4	Pstat Model
PSTATSECTION	LABEL	REF600-07089	Pstat Section
PSTATSERIALNO	LABEL	07089	Pstat Serial Number
CTRLMODE	IQUANT	1	Control Mode
IESTAB	IQUANT	0	I/E Stability
CASPEED	IQUANT	2	Control Amp Speed
CONVENTION	IQUANT	1	Current Convention
ICHRANGE	IQUANT	2	Ich Range
ICHRANGEMODE	TOGGLE	F	Ich Auto Range
ICHOFFSETENABLE	TOGGLE	T	Ich Offset Enable
ICHOFFSET	QUANT	0	Ich Offset (V)
ICHFILTER	IQUANT	3	Ich Filter
VCHRANGE	IQUANT	2	Vch Range
VCHRANGEMODE	TOGGLE	F	Vch Auto Range
VCHOFFSETENABLE	TOGGLE	T	Vch Offset Enable
VCHOFFSET	QUANT	0	Vch Offset (V)
VCHFILTER	IQUANT	3	Vch Filter
ACHRANGE	IQUANT	2	Ach Range
ACHOFFSETENABLE	TOGGLE	F	Ach Offset Enable
ACHOFFSET	QUANT	0	Ach Offset (V)
ACHFILTER	IQUANT	1	Ach Filter
IERANGELOWERLIMIT	IQUANT	1	I/E Range Lower Limit
IERANGEMODE	TOGGLE	F	I/E AutoRange
IERANGE	IQUANT	10	I/E Range
POSFEEDENABLE	TOGGLE	F	Positive Feedback IR Comp
POSFEEDRESISTANCE	QUANT	0	Positive Feedback Resistance (ohm)
ACHSELECT	IQUANT	0	Ach Select
CABLEID	IQUANT	14	Cable ID
DCCALDATE	LABEL	14-4-2009	DC Calibration Date
ACCALDATE	LABEL	14-4-2009	AC Calibration Date
THERMOSELECT	IQUANT	0	Thermo Select
FRAMEWORKVERSION	QUANT	5.5	Framework Version
INSTRUMENTVERSION	LABEL	2.00	Instrument Version
ZCURVE	TABLE
	Pt	Time	Freq	Zreal	Zimag	Zsig	Zmod	Zphz	Idc	Vdc	IERange
	#	s	Hz	ohm	ohm	V	ohm	°	A	V	#
	0	10	998.26	1350.79	-18289.4	1	18339.2	-85.776	1.23997E-008	2.99891	7
	1	16	998.26	1328.68	-18325.1	1	18373.2	-85.853	7.37973E-009	2.89895	7
	2	21	998.26	1259.31	-18324.5	1	18367.8	-86.0687	4.72069E-009	2.799	7
	3	26	998.26	1282.73	-18350.3	1	18395	-86.0014	1.16938E-008	2.69908	7
	4	32	998.26	1276.9	-18358.9	1	18403.3	-86.0214	1.0507E-008	2.59909	7
	5	37	998.26	1263.4	-18328.5	1	18372	-86.0568	1.13679E-008	2.49915	7
	6	43	998.26	1352.5	-18402.6	1	18452.3	-85.7966	1.71264E-009	2.39916	7
	7	48	998.26	1375.95	-18473.7	1	18524.8	-85.7404	1.10006E-008	2.29924	7
	8	54	998.26	1328.52	-18426.9	1	18474.8	-85.8763	2.63256E-009	2.19922	7
	9	60	998.26	1276.76	-18506.6	1	18550.5	-86.0534	1.33773E-008	2.0993	7
	10	65	998.26	1338.12	-18538.9	1	18587.2	-85.8716	8.92812E-009	1.99932	7
	11	71	998.26	1305.85	-18636.7	1	18682.4	-85.9919	2.57543E-009	1.89935	7
	12	77	998.26	1373.15	-18613.5	1	18664.1	-85.7809	2.62878E-010	1.79935	7
	13	82	998.26	1294.59	-18770.3	1	18814.8	-86.0545	1.00833E-008	1.69947	7
	14	88	998.26	1265.88	-18734.7	1	18777.4	-86.1345	4.0093E-009	1.59957	7
	15	94	998.26	1336.02	-18848.5	1	18895.8	-85.9455	1.38855E-009	1.49961	7
	16	99	998.26	1291.56	-18853.3	1	18897.5	-86.0811	1.13395E-008	1.39967	7
	17	107	998.26	1347.1	-18999.2	1	19046.9	-85.9443	2.67388E-009	1.29968	7
	18	116	998.26	1345.32	-19128.2	1	19175.5	-85.9769	3.73861E-009	1.19975	7
	19	124	998.26	1365	-19192.3	1	19240.8	-85.9318	8.21683E-009	1.09971	7
	20	132	998.26	1243.8	-19334.2	1	19374.1	-86.3191	4.05749E-009	0.99973	7
	21	140	998.26	1290.29	-19556.1	1	19598.6	-86.2252	9.16782E-009	0.899791	7
	22	152	998.26	1314.74	-19735.5	1	19779.2	-86.1887	1.26648E-008	0.79985	7
	23	163	998.26	1279.11	-19928.6	1	19969.7	-86.3275	1.02273E-008	0.699887	7
	24	168	998.26	1341.21	-20175.7	1	20220.2	-86.1968	1.03379E-008	0.599907	7
	25	174	998.26	1395.12	-20419.7	1	20467.3	-86.0915	1.34714E-008	0.499987	7
	26	180	998.26	1319.8	-20682.3	1	20724.3	-86.3487	4.59949E-009	0.399997	7
	27	185	998.26	1420.33	-20999.5	1	21047.5	-86.1306	2.74229E-009	0.300065	7
	28	191	998.26	1345.3	-21228.7	1	21271.3	-86.3739	1.27674E-008	0.200111	7
	29	197	998.26	1377.11	-21614.4	1	21658.2	-86.3545	1.04498E-008	0.100193	7
	30	202	998.26	1371.73	-21818	1	21861.1	-86.4025	9.09133E-009	0.000226	7
	31	208	998.26	1224.35	-22260.3	1	22294	-86.8518	1.0945E-009	-0.100036	7
	32	214	998.26	1345.89	-22572	1	22612.1	-86.5877	6.71523E-009	-0.199965	7
	33	219	998.26	1436.76	-22924.8	1	22969.8	-86.4138	8.16517E-009	-0.299933	7
	34	225	998.26	1533.08	-23276.3	1	23326.8	-86.2317	1.35434E-009	-0.399889	7
	35	231	998.26	1589.65	-23797.9	1	23850.9	-86.1784	1.09215E-008	-0.499838	7
	36	236	998.26	1651.81	-24190	1	24246.4	-86.0937	7.70686E-009	-0.599785	7
	37	242	998.26	1645.99	-24694.5	1	24749.3	-86.1866	1.2828E-009	-0.699778	7
	38	248	998.26	1505.54	-25139.7	1	25184.7	-86.5728	6.8465E-009	-0.799689	7
	39	254	998.26	1496.98	-25510	1	25553.9	-86.6416	2.81557E-009	-0.899685	7
	40	260	998.26	1507.42	-25892.8	1	25936.6	-86.6681	9.95603E-009	-0.99961	7
	41	266	998.26	1490.99	-26214.7	1	26257.1	-86.7448	2.72577E-009	-1.09968	7
	42	272	998.26	1453.19	-26510.2	1	26550	-86.8624	3.04771E-009	-1.19963	7
	43	277	998.26	1523.67	-26831.1	1	26874.4	-86.7498	8.02128E-009	-1.29957	7
	44	283	998.26	1511.78	-27014.5	1	27056.8	-86.797	7.02875E-009	-1.39954	7
	45	288	998.26	1406.74	-27425	1	27461.1	-87.0636	7.20915E-009	-1.49948	7
	46	293	998.26	1319.75	-27571	1	27602.6	-87.2595	1.82397E-009	-1.59944	7
	47	299	998.26	1526.8	-27831.7	1	27873.6	-86.86	1.18604E-008	-1.69935	7
	48	304	998.26	1568.72	-28005.6	1	28049.5	-86.794	1.07047E-008	-1.7993	7
	49	309	998.26	1534.83	-28102.6	1	28144.5	-86.8739	7.58098E-010	-1.89932	7
	50	315	998.26	1541.68	-28037	1	28079.3	-86.8526	8.26459E-010	-1.99926	7
	51	320	998.26	1471.71	-27979.5	1	28018.2	-86.989	1.91179E-009	-2.09923	7
	52	326	998.26	1643.58	-28072.2	1	28120.3	-86.6493	2.08178E-010	-2.19919	7
	53	331	998.26	1556.93	-28128.5	1	28171.5	-86.8319	4.03651E-009	-2.29918	7
	54	337	998.26	1469.78	-27886	1	27924.7	-86.9829	2.36261E-009	-2.39912	7
	55	343	998.26	1411.21	-28183.4	1	28218.7	-87.1335	9.48994E-009	-2.49905	7
	56	348	998.26	1474.98	-28010.6	1	28049.4	-86.9857	1.14341E-008	-2.59901	7
	57	353	998.26	1557.47	-27969.2	1	28012.5	-86.8128	1.99726E-009	-2.699	7
	58	359	998.26	1496.71	-27896.7	1	27936.9	-86.9289	7.8054E-009	-2.79896	7
	59	364	998.26	1675	-27772.5	1	27822.9	-86.5486	1.68508E-009	-2.8989	7
	60	369	998.26	1534.26	-27667.2	1	27709.7	-86.826	1.20553E-008	-2.99884	7

File: C0_MS_pH10_03.DTA
EXPLAIN
TAG	MOTTSCHOTTKY
TITLE	LABEL	Mott-Schottky	Test &Identifier
DATE	LABEL	29-10-2009	Date
TIME	LABEL	23:31:31	Time
NOTES	NOTES	2	&Notes...
	Si/SiO2
	T=25.3oC
PSTAT	PSTAT	REF600-07089	Potentiostat
VINIT	POTEN	3.00000E+000	F	Initial &Voltage (V)
VFINAL	POTEN	-3.00000E+000	F	Final &Voltage (V)
VSTEP	QUANT	1.00000E-001	&Voltage Step (V)
FREQINIT	QUANT	1.00000E+003	Fre&quency (Hz)
VAC	QUANT	1.00000E+001	AC &Voltage (mV rms)
AREA	QUANT	1.00000E-002	&Area (cm^2)
CONDIT	TWOPARAM	T	2.00000E+001	3.00000E+000	Conditionin&g	Time(s)	E(V)
DELAY	TWOPARAM	T	2.50000E-001	0.00000E+000	Init. De&lay	Time(s)	Stab.(mV/s)
SPEED	SELECTOR	1	&Optimize for:
ZGUESS	QUANT	1.00000E+002	E&stimated Z (ohms)
OCVCURVE	TABLE	1
	Pt	T	Vf	Vm	Ach	Over
	#	s	V vs. Ref.	V	V	bits
	0	0.258333	3.64745E+000	0.00000E+000	-2.34270E-004	.............
EOC	QUANT	3.64745	Open Circuit (V)
PSTATMODEL	IQUANT	4	Pstat Model
PSTATSECTION	LABEL	REF600-07089	Pstat Section
PSTATSERIALNO	LABEL	07089	Pstat Serial Number
CTRLMODE	IQUANT	1	Control Mode
IESTAB	IQUANT	0	I/E Stability
CASPEED	IQUANT	2	Control Amp Speed
CONVENTION	IQUANT	1	Current Convention
ICHRANGE	IQUANT	2	Ich Range
ICHRANGEMODE	TOGGLE	F	Ich Auto Range
ICHOFFSETENABLE	TOGGLE	T	Ich Offset Enable
ICHOFFSET	QUANT	0	Ich Offset (V)
ICHFILTER	IQUANT	3	Ich Filter
VCHRANGE	IQUANT	2	Vch Range
VCHRANGEMODE	TOGGLE	F	Vch Auto Range
VCHOFFSETENABLE	TOGGLE	T	Vch Offset Enable
VCHOFFSET	QUANT	0	Vch Offset (V)
VCHFILTER	IQUANT	3	Vch Filter
ACHRANGE	IQUANT	2	Ach Range
ACHOFFSETENABLE	TOGGLE	F	Ach Offset Enable
ACHOFFSET	QUANT	0	Ach Offset (V)
ACHFILTER	IQUANT	1	Ach Filter
IERANGELOWERLIMIT	IQUANT	1	I/E Range Lower Limit
IERANGEMODE	TOGGLE	F	I/E AutoRange
IERANGE	IQUANT	10	I/E Range
POSFEEDENABLE	TOGGLE	F	Positive Feedback IR Comp
POSFEEDRESISTANCE	QUANT	0	Positive Feedback Resistance (ohm)
ACHSELECT	IQUANT	0	Ach Select
CABLEID	IQUANT	14	Cable ID
DCCALDATE	LABEL	14-4-2009	DC Calibration Date
ACCALDATE	LABEL	14-4-2009	AC Calibration Date
THERMOSELECT	IQUANT	0	Thermo Select
FRAMEWORKVERSION	QUANT	5.5	Framework Version
INSTRUMENTVERSION	LABEL	2.00	Instrument Version
ZCURVE	TABLE
	Pt	Time	Freq	Zreal	Zimag	Zsig	Zmod	Zphz	Idc	Vdc	IERange
	#	s	Hz	ohm	ohm	V	ohm	°	A	V	#
	0	10	998.26	1305.43	-18230.6	1	18277.3	-85.9043	1.30748E-008	2.9989	7
	1	16	998.26	1367.81	-18278.9	1	18330	-85.7205	1.01736E-008	2.89897	7
	2	21	998.26	1272.67	-18251	1	18295.3	-86.0111	4.9452E-009	2.799	7
	3	27	998.26	1348.95	-18264.2	1	18313.9	-85.7759	5.79132E-009	2.69905	7
	4	32	998.26	1279.28	-18304.6	1	18349.3	-86.0022	4.17843E-009	2.59907	7
	5	37	998.26	1289.89	-18359.6	1	18404.9	-85.9812	1.14536E-008	2.49916	7
	6	43	998.26	1323.31	-18371.4	1	18419	-85.88	6.2373E-009	2.39919	7
	7	49	998.26	1376.44	-18361.1	1	18412.6	-85.7128	6.40217E-009	2.29924	7
	8	54	998.26	1323.66	-18413.3	1	18460.8	-85.8883	1.02875E-008	2.19926	7
	9	60	998.26	1355.76	-18452.9	1	18502.7	-85.7979	1.10184E-008	2.09929	7
	10	66	998.26	1299.18	-18525.6	1	18571.1	-85.9885	1.24064E-008	1.99933	7
	11	71	998.26	1297.48	-18560.1	1	18605.4	-86.0011	3.60752E-009	1.89937	7
	12	77	998.26	1282.6	-18575.1	1	18619.3	-86.05	1.15249E-008	1.79939	7
	13	83	998.26	1317.63	-18607.2	1	18653.8	-85.9495	8.45075E-010	1.69945	7
	14	88	998.26	1344.24	-18687.3	1	18735.6	-85.8856	1.29672E-008	1.5996	7
	15	94	998.26	1409.32	-18843.3	1	18895.9	-85.7227	5.43459E-009	1.49963	7
	16	99	998.26	1314.23	-18813	1	18858.9	-86.004	8.9243E-009	1.39967	7
	17	108	998.26	1389.1	-18953.5	1	19004.3	-85.8083	8.66862E-009	1.2997	7
	18	116	998.26	1309.13	-19064	1	19108.9	-86.0716	1.28907E-008	1.19977	7
	19	124	998.26	1382.94	-19208.8	1	19258.5	-85.8821	1.04251E-008	1.09971	7
	20	132	998.26	1353.4	-19310.1	1	19357.5	-85.9909	6.27481E-009	0.99973	7
	21	141	998.26	1274.15	-19473.2	1	19514.9	-86.2564	3.16674E-009	0.899774	7
	22	152	998.26	1356.42	-19712.8	1	19759.4	-86.0637	1.25498E-008	0.799847	7
	23	163	998.26	1340.23	-19878.7	1	19923.8	-86.1429	9.91046E-009	0.699893	7
	24	169	998.26	1380.08	-20104.3	1	20151.6	-86.073	8.92395E-009	0.599908	7
	25	174	998.26	1385.13	-20304.3	1	20351.5	-86.0974	4.7351E-009	0.499961	7
	26	180	998.26	1358.53	-20690.6	1	20735.2	-86.2434	2.9227E-009	0.400006	7
	27	185	998.26	1423.52	-20972	1	21020.3	-86.1169	7.07275E-009	0.300076	7
	28	191	998.26	1340.23	-21214.2	1	21256.5	-86.3851	1.06315E-008	0.20011	7
	29	197	998.26	1323.72	-21602.6	1	21643.1	-86.4935	1.1485E-010	0.10016	7
	30	202	998.26	1384.08	-21853.8	1	21897.6	-86.3761	9.57152E-009	0.000217	7
	31	208	998.26	1329.61	-22187.9	1	22227.7	-86.5707	1.09879E-008	-0.100006	7
	32	214	998.26	1390.13	-22476.7	1	22519.6	-86.4609	9.45727E-009	-0.199965	7
	33	219	998.26	1430.56	-22832.5	1	22877.3	-86.4148	1.1952E-008	-0.299931	7
	34	225	998.26	1419.18	-23180.5	1	23223.9	-86.4966	4.65471E-009	-0.399885	7
	35	231	998.26	1607.09	-23659.2	1	23713.7	-86.114	1.06582E-008	-0.499837	7
	36	236	998.26	1568.83	-24076.7	1	24127.7	-86.2719	6.43866E-008	-0.599772	8
	37	242	998.26	1545.63	-24527.9	1	24576.6	-86.3943	1.01604E-008	-0.699754	7
	38	248	998.26	1541.97	-25097.4	1	25144.7	-86.4842	8.35035E-009	-0.799699	7
	39	254	998.26	1462.96	-25488.1	1	25530.1	-86.715	6.94252E-009	-0.899679	7
	40	260	998.26	1425.22	-25747.9	1	25787.3	-86.8317	3.83969E-009	-0.99964	7
	41	266	998.26	1488.71	-26179.5	1	26221.8	-86.7454	6.7381E-010	-1.0997	7
	42	271	998.26	1516.07	-26450.7	1	26494.1	-86.7196	1.18302E-008	-1.19963	7
	43	276	998.26	1471.91	-26685.5	1	26726.1	-86.8429	1.2154E-008	-1.29956	7
	44	281	998.26	1383.79	-27018.5	1	27053.9	-87.0681	8.01976E-009	-1.39954	7
	45	287	998.26	1593.89	-27208.8	1	27255.5	-86.6475	1.17294E-009	-1.49952	7
	46	292	998.26	1524.87	-27506.4	1	27548.7	-86.8269	5.10132E-009	-1.59943	7
	47	298	998.26	1510.38	-27771.8	1	27812.8	-86.887	1.05707E-008	-1.69936	7
	48	303	998.26	1534.12	-27861.3	1	27903.5	-86.8483	1.10426E-008	-1.79931	7
	49	308	998.26	1555.45	-27914.6	1	27957.9	-86.8107	2.55001E-009	-1.8993	7
	50	314	998.26	1733.6	-28130.9	1	28184.3	-86.4735	8.44719E-011	-1.99925	7
	51	319	998.26	1552.11	-28070.1	1	28113	-86.8351	9.92294E-009	-2.0992	7
	52	324	998.26	1617.96	-28132.8	1	28179.2	-86.7085	3.84397E-009	-2.19918	7
	53	330	998.26	1537.29	-28008.6	1	28050.8	-86.8584	6.28738E-009	-2.29917	7
	54	335	998.26	1609.39	-27911	1	27957.3	-86.6999	5.94684E-010	-2.39912	7
	55	341	998.26	1415.23	-27955.6	1	27991.4	-87.1019	2.27088E-009	-2.49908	7
	56	346	998.26	1468.09	-28001.1	1	28039.5	-86.9987	5.98006E-010	-2.59903	7
	57	352	998.26	1550.11	-27799	1	27842.2	-86.8084	6.75994E-009	-2.699	7
	58	357	998.26	1686.73	-27769.3	1	27820.5	-86.5241	5.42505E-010	-2.79899	7
	59	363	998.26	1704.92	-27803.2	1	27855.5	-86.491	8.85888E-009	-2.89887	7
	60	368	998.26	1767.29	-27600.8	1	27657.3	-86.3363	7.39189E-009	-2.99886	7