Folder: Scientific_Analysis_MN/OriginPro/EIS (part 2)

File: C0_MS_pH4_03a.DTA
EXPLAIN
TAG	MOTTSCHOTTKY
TITLE	LABEL	Mott-Schottky	Test &Identifier
DATE	LABEL	29-10-2009	Date
TIME	LABEL	22:11:06	Time
NOTES	NOTES	2	&Notes...
	Si/SiO2
	T=25.3oC
PSTAT	PSTAT	REF600-07089	Potentiostat
VINIT	POTEN	-3.00000E+000	F	Initial &Voltage (V)
VFINAL	POTEN	3.00000E+000	F	Final &Voltage (V)
VSTEP	QUANT	1.00000E-001	&Voltage Step (V)
FREQINIT	QUANT	1.00000E+003	Fre&quency (Hz)
VAC	QUANT	1.00000E+001	AC &Voltage (mV rms)
AREA	QUANT	1.00000E-002	&Area (cm^2)
CONDIT	TWOPARAM	T	2.00000E+001	-3.00000E+000	Conditionin&g	Time(s)	E(V)
DELAY	TWOPARAM	T	2.50000E-001	0.00000E+000	Init. De&lay	Time(s)	Stab.(mV/s)
SPEED	SELECTOR	1	&Optimize for:
ZGUESS	QUANT	1.00000E+002	E&stimated Z (ohms)
OCVCURVE	TABLE	1
	Pt	T	Vf	Vm	Ach	Over
	#	s	V vs. Ref.	V	V	bits
	0	0.258333	-2.05029E+000	0.00000E+000	1.80357E-004	.............
EOC	QUANT	-2.05029	Open Circuit (V)
PSTATMODEL	IQUANT	4	Pstat Model
PSTATSECTION	LABEL	REF600-07089	Pstat Section
PSTATSERIALNO	LABEL	07089	Pstat Serial Number
CTRLMODE	IQUANT	1	Control Mode
IESTAB	IQUANT	0	I/E Stability
CASPEED	IQUANT	2	Control Amp Speed
CONVENTION	IQUANT	1	Current Convention
ICHRANGE	IQUANT	2	Ich Range
ICHRANGEMODE	TOGGLE	F	Ich Auto Range
ICHOFFSETENABLE	TOGGLE	T	Ich Offset Enable
ICHOFFSET	QUANT	0	Ich Offset (V)
ICHFILTER	IQUANT	3	Ich Filter
VCHRANGE	IQUANT	2	Vch Range
VCHRANGEMODE	TOGGLE	F	Vch Auto Range
VCHOFFSETENABLE	TOGGLE	T	Vch Offset Enable
VCHOFFSET	QUANT	0	Vch Offset (V)
VCHFILTER	IQUANT	3	Vch Filter
ACHRANGE	IQUANT	2	Ach Range
ACHOFFSETENABLE	TOGGLE	F	Ach Offset Enable
ACHOFFSET	QUANT	0	Ach Offset (V)
ACHFILTER	IQUANT	1	Ach Filter
IERANGELOWERLIMIT	IQUANT	1	I/E Range Lower Limit
IERANGEMODE	TOGGLE	F	I/E AutoRange
IERANGE	IQUANT	10	I/E Range
POSFEEDENABLE	TOGGLE	F	Positive Feedback IR Comp
POSFEEDRESISTANCE	QUANT	0	Positive Feedback Resistance (ohm)
ACHSELECT	IQUANT	0	Ach Select
CABLEID	IQUANT	14	Cable ID
DCCALDATE	LABEL	14-4-2009	DC Calibration Date
ACCALDATE	LABEL	14-4-2009	AC Calibration Date
THERMOSELECT	IQUANT	0	Thermo Select
FRAMEWORKVERSION	QUANT	5.5	Framework Version
INSTRUMENTVERSION	LABEL	2.00	Instrument Version
ZCURVE	TABLE
	Pt	Time	Freq	Zreal	Zimag	Zsig	Zmod	Zphz	Idc	Vdc	IERange
	#	s	Hz	ohm	ohm	V	ohm	°	A	V	#
	0	10	998.26	1624.04	-29107.2	1	29152.5	-86.8065	8.12173E-009	-2.9989	7
	1	16	998.26	1644.1	-28265.6	1	28313.4	-86.6711	1.35581E-008	-2.8989	7
	2	22	998.26	1611.08	-27809.3	1	27855.9	-86.6844	1.12666E-008	-2.79898	7
	3	28	998.26	1662.08	-27703.9	1	27753.8	-86.5667	1.44572E-008	-2.699	7
	4	34	998.26	1786.49	-27653.6	1	27711.2	-86.3037	6.67334E-009	-2.59906	7
	5	40	998.26	1764.91	-27767.7	1	27823.7	-86.3632	1.11251E-008	-2.49908	7
	6	46	998.26	1759.79	-27824.1	1	27879.7	-86.381	1.30169E-008	-2.39911	7
	7	51	998.26	1663.55	-27834	1	27883.7	-86.5797	1.21925E-008	-2.29918	7
	8	57	998.26	1849.14	-28073.4	1	28134.3	-86.2315	4.0271E-009	-2.19921	7
	9	63	998.26	1851.41	-28223.8	1	28284.4	-86.2469	6.57278E-009	-2.09924	7
	10	69	998.26	1706.33	-28448	1	28499.1	-86.5675	1.06342E-008	-1.99925	7
	11	75	998.26	1695.23	-28740.1	1	28790	-86.6243	9.88543E-009	-1.8993	7
	12	81	998.26	1676.67	-29008.4	1	29056.8	-86.692	8.55243E-009	-1.79932	7
	13	87	998.26	1673.45	-29074.6	1	29122.7	-86.7058	1.00663E-008	-1.69937	7
	14	93	998.26	1456.41	-29243.8	1	29280.1	-87.1489	6.55995E-009	-1.59944	7
	15	99	998.26	1462.76	-29025.1	1	29062	-87.1149	6.1116E-010	-1.49953	7
	16	105	998.26	1354.75	-28855.5	1	28887.3	-87.312	9.04754E-009	-1.39954	7
	17	111	998.26	1228.67	-28613.8	1	28640.1	-87.5412	2.01278E-009	-1.29959	7
	18	117	998.26	1421.28	-28366.7	1	28402.3	-87.1317	1.87926E-009	-1.19965	7
	19	123	998.26	1288.49	-28060.5	1	28090.1	-87.3709	8.8736E-009	-1.09968	7
	20	129	998.26	1242.16	-27750.4	1	27778.2	-87.437	1.53722E-010	-0.99965	7
	21	135	998.26	1236.59	-27355	1	27382.9	-87.4117	8.75093E-009	-0.899671	7
	22	141	998.26	1281.08	-27124.7	1	27155	-87.296	4.2267E-010	-0.7997	7
	23	147	998.26	1334.44	-26722.2	1	26755.5	-87.1412	2.39501E-009	-0.699773	7
	24	153	998.26	1441.92	-26571.1	1	26610.2	-86.8938	6.969E-009	-0.59978	7
	25	159	998.26	1451.52	-26058.6	1	26099	-86.8118	1.80187E-009	-0.499866	7
	26	165	998.26	1509.84	-25567.8	1	25612.3	-86.6205	9.51295E-009	-0.399871	7
	27	171	998.26	1542.54	-25194.3	1	25241.5	-86.4964	1.50652E-009	-0.299952	7
	28	176	998.26	1469.53	-24640.7	1	24684.5	-86.587	-1.75824E-009	-0.199987	7
	29	182	998.26	1351.85	-24288.2	1	24325.8	-86.8143	9.91654E-009	-0.100052	8
	30	189	998.26	1345.23	-23722.8	1	23760.9	-86.7545	1.03697E-008	0.000225	7
	31	194	998.26	1375.72	-23419.8	1	23460.2	-86.6382	3.64684E-008	0.100181	8
	32	200	998.26	1255.39	-23026.9	1	23061.1	-86.8794	2.00495E-009	0.200085	7
	33	206	998.26	1223.85	-22750.4	1	22783.3	-86.9208	7.49885E-009	0.300085	7
	34	211	998.26	1285.79	-22403.1	1	22440	-86.7152	3.09937E-009	0.400007	7
	35	216	998.26	1286.32	-22106.4	1	22143.8	-86.6699	1.1138E-008	0.499987	7
	36	222	998.26	1237.05	-21773.9	1	21809	-86.7483	7.3525E-010	0.599897	7
	37	228	998.26	1237.63	-21455.7	1	21491.4	-86.6987	1.21149E-008	0.699908	7
	38	234	998.26	1183.24	-21129.8	1	21162.9	-86.7949	1.68729E-009	0.79984	7
	39	239	998.26	1201.82	-20897	1	20931.5	-86.7085	1.14419E-008	0.899807	7
	40	245	998.26	1154.94	-20652.3	1	20684.5	-86.7992	7.64357E-009	0.99975	7
	41	250	998.26	1226.1	-20484.9	1	20521.5	-86.5747	1.12482E-008	1.09974	7
	42	256	998.26	1199.3	-20314.9	1	20350.2	-86.6214	1.07425E-008	1.19978	7
	43	261	998.26	1176.09	-20029.7	1	20064.2	-86.6396	5.45467E-010	1.29969	7
	44	266	998.26	1183.38	-19867.9	1	19903.1	-86.5914	1.09136E-008	1.39968	7
	45	272	998.26	1154.83	-19776.5	1	19810.2	-86.6581	1.01589E-008	1.49965	7
	46	277	998.26	1259.61	-19683.6	1	19723.9	-86.3385	6.31691E-009	1.59959	7
	47	282	998.26	1179.04	-19596.5	1	19631.9	-86.5569	3.14573E-009	1.69945	7
	48	288	998.26	1145.15	-19519.5	1	19553.1	-86.6425	-5.19435E-010	1.79935	7
	49	293	998.26	1210.19	-19399.3	1	19437	-86.4303	6.51234E-009	1.89939	7
	50	298	998.26	1157.86	-19353.2	1	19387.8	-86.5762	9.53462E-009	1.99932	7
	51	304	998.26	1177.97	-19304.9	1	19340.8	-86.5082	1.20562E-008	2.09931	7
	52	309	998.26	1142.69	-19212	1	19245.9	-86.5962	4.33001E-009	2.19925	7
	53	314	998.26	1216.07	-19228.4	1	19266.8	-86.3812	7.97356E-009	2.29924	7
	54	320	998.26	1218.39	-19144	1	19182.7	-86.3584	2.27704E-009	2.39917	7
	55	326	998.26	1229.6	-19144.3	1	19183.7	-86.3251	7.29118E-009	2.49914	7
	56	331	998.26	1150.96	-19056.6	1	19091.3	-86.5437	8.27031E-009	2.59909	7
	57	336	998.26	1186.15	-19080.8	1	19117.6	-86.4428	9.76148E-009	2.69908	7
	58	342	998.26	1278.12	-18978.3	1	19021.3	-86.1472	7.45465E-009	2.79901	7
	59	348	998.26	1184.87	-18986.7	1	19023.6	-86.4291	3.26607E-009	2.89897	7
	60	353	998.26	1191.55	-18907.3	1	18944.9	-86.394	1.03063E-008	2.99891	7

File: C0_MS_pH4_04.DTA
EXPLAIN
TAG	MOTTSCHOTTKY
TITLE	LABEL	Mott-Schottky	Test &Identifier
DATE	LABEL	29-10-2009	Date
TIME	LABEL	22:18:04	Time
NOTES	NOTES	2	&Notes...
	Si/SiO2
	T=25.3oC
PSTAT	PSTAT	REF600-07089	Potentiostat
VINIT	POTEN	3.00000E+000	F	Initial &Voltage (V)
VFINAL	POTEN	-3.00000E+000	F	Final &Voltage (V)
VSTEP	QUANT	1.00000E-001	&Voltage Step (V)
FREQINIT	QUANT	5.00000E+002	Fre&quency (Hz)
VAC	QUANT	1.00000E+001	AC &Voltage (mV rms)
AREA	QUANT	1.00000E-002	&Area (cm^2)
CONDIT	TWOPARAM	T	2.00000E+001	3.00000E+000	Conditionin&g	Time(s)	E(V)
DELAY	TWOPARAM	T	2.50000E-001	0.00000E+000	Init. De&lay	Time(s)	Stab.(mV/s)
SPEED	SELECTOR	1	&Optimize for:
ZGUESS	QUANT	1.00000E+002	E&stimated Z (ohms)
OCVCURVE	TABLE	1
	Pt	T	Vf	Vm	Ach	Over
	#	s	V vs. Ref.	V	V	bits
	0	0.258333	3.67193E+000	0.00000E+000	-3.55934E-004	.............
EOC	QUANT	3.67193	Open Circuit (V)
PSTATMODEL	IQUANT	4	Pstat Model
PSTATSECTION	LABEL	REF600-07089	Pstat Section
PSTATSERIALNO	LABEL	07089	Pstat Serial Number
CTRLMODE	IQUANT	1	Control Mode
IESTAB	IQUANT	0	I/E Stability
CASPEED	IQUANT	2	Control Amp Speed
CONVENTION	IQUANT	1	Current Convention
ICHRANGE	IQUANT	2	Ich Range
ICHRANGEMODE	TOGGLE	F	Ich Auto Range
ICHOFFSETENABLE	TOGGLE	T	Ich Offset Enable
ICHOFFSET	QUANT	0	Ich Offset (V)
ICHFILTER	IQUANT	3	Ich Filter
VCHRANGE	IQUANT	2	Vch Range
VCHRANGEMODE	TOGGLE	F	Vch Auto Range
VCHOFFSETENABLE	TOGGLE	T	Vch Offset Enable
VCHOFFSET	QUANT	0	Vch Offset (V)
VCHFILTER	IQUANT	3	Vch Filter
ACHRANGE	IQUANT	2	Ach Range
ACHOFFSETENABLE	TOGGLE	F	Ach Offset Enable
ACHOFFSET	QUANT	0	Ach Offset (V)
ACHFILTER	IQUANT	1	Ach Filter
IERANGELOWERLIMIT	IQUANT	1	I/E Range Lower Limit
IERANGEMODE	TOGGLE	F	I/E AutoRange
IERANGE	IQUANT	10	I/E Range
POSFEEDENABLE	TOGGLE	F	Positive Feedback IR Comp
POSFEEDRESISTANCE	QUANT	0	Positive Feedback Resistance (ohm)
ACHSELECT	IQUANT	0	Ach Select
CABLEID	IQUANT	14	Cable ID
DCCALDATE	LABEL	14-4-2009	DC Calibration Date
ACCALDATE	LABEL	14-4-2009	AC Calibration Date
THERMOSELECT	IQUANT	0	Thermo Select
FRAMEWORKVERSION	QUANT	5.5	Framework Version
INSTRUMENTVERSION	LABEL	2.00	Instrument Version
ZCURVE	TABLE
	Pt	Time	Freq	Zreal	Zimag	Zsig	Zmod	Zphz	Idc	Vdc	IERange
	#	s	Hz	ohm	ohm	V	ohm	°	A	V	#
	0	14	495.793	1391.14	-37864.8	1	37890.3	-87.8959	1.21337E-008	2.99891	7
	1	20	495.793	1392.52	-37917.2	1	37942.8	-87.8967	9.53793E-009	2.89898	7
	2	26	495.793	1392.27	-37958.3	1	37983.8	-87.8994	8.89947E-009	2.79902	7
	3	32	495.793	1395.4	-38020.1	1	38045.7	-87.8981	7.73207E-009	2.69907	7
	4	38	495.793	1393.52	-38087.7	1	38113.2	-87.9046	6.69746E-009	2.59908	7
	5	44	495.793	1393.84	-38153.1	1	38178.5	-87.9078	6.5234E-009	2.49915	7
	6	50	495.793	1395.85	-38230	1	38255.5	-87.909	6.1081E-009	2.3992	7
	7	56	495.793	1390.09	-38313.9	1	38339.1	-87.9221	6.47928E-009	2.29923	7
	8	62	495.793	1395.33	-38407.8	1	38433.1	-87.9194	6.39035E-009	2.19925	7
	9	68	495.793	1398.09	-38514.1	1	38539.4	-87.921	5.41784E-009	2.0993	7
	10	74	495.793	1395.84	-38628.1	1	38653.3	-87.9305	6.00545E-009	1.99932	7
	11	80	495.793	1396.51	-38764.2	1	38789.3	-87.9368	5.40555E-009	1.89939	7
	12	86	495.793	1404.48	-38928.2	1	38953.5	-87.9337	5.06865E-009	1.79937	7
	13	91	495.793	1397.04	-39096.7	1	39121.7	-87.9535	5.17856E-009	1.69947	7
	14	97	495.793	1403.63	-39299.7	1	39324.7	-87.9545	5.56692E-009	1.59959	7
	15	103	495.793	1406.46	-39523	1	39548	-87.9619	5.57549E-009	1.49964	7
	16	109	495.793	1404.65	-39787.1	1	39811.9	-87.9781	5.35295E-009	1.39966	7
	17	115	495.793	1411.47	-40090.8	1	40115.6	-87.9836	5.19676E-009	1.2997	7
	18	121	495.793	1410.09	-40428.9	1	40453.5	-88.0024	4.44529E-009	1.19976	7
	19	127	495.793	1419.39	-40832.5	1	40857.1	-88.0091	4.85971E-009	1.09972	7
	20	133	495.793	1424.56	-41267.9	1	41292.5	-88.0229	4.84659E-009	0.99975	7
	21	139	495.793	1431.48	-41766.9	1	41791.4	-88.0371	5.49251E-009	0.899792	7
	22	145	495.793	1437.24	-42299.5	1	42323.9	-88.054	5.74777E-009	0.799837	7
	23	151	495.793	1437.67	-42888.8	1	42912.9	-88.0801	5.62104E-009	0.699891	7
	24	157	495.793	1446.22	-43498.3	1	43522.3	-88.0957	5.79733E-009	0.599908	7
	25	163	495.793	1454.11	-44135.8	1	44159.8	-88.113	5.78461E-009	0.49997	7
	26	169	495.793	1458.53	-44767.3	1	44791.1	-88.134	6.00385E-009	0.400016	7
	27	175	495.793	1472.47	-45422.8	1	45446.6	-88.1433	5.73954E-009	0.30008	7
	28	181	495.793	1492.81	-46070	1	46094.1	-88.1441	5.17636E-009	0.200106	7
	29	187	495.793	1536.01	-46740.9	1	46766.1	-88.1178	4.84092E-009	0.100187	7
	30	193	495.793	1606.68	-47433.6	1	47460.8	-88.06	5.13476E-009	0.000221	7
	31	198	495.793	1719.47	-48181.1	1	48211.8	-87.9561	5.71025E-009	-0.100027	7
	32	204	495.793	1853.86	-49054.7	1	49089.8	-87.8357	4.67846E-009	-0.199962	7
	33	210	495.793	1960.85	-50052.2	1	50090.6	-87.7565	5.60872E-009	-0.299936	7
	34	216	495.793	1943.3	-51132.4	1	51169.3	-87.8235	5.95889E-010	-0.399884	6
	35	222	495.793	1845.76	-52105.9	1	52138.6	-87.9712	5.6029E-010	-0.499851	6
	36	227	495.793	1730.93	-52942	1	52970.3	-88.1274	5.62768E-010	-0.599784	6
	37	233	495.793	1653.44	-53680.9	1	53706.4	-88.2358	5.07104E-010	-0.699771	6
	38	238	495.793	1615.13	-54348.8	1	54372.8	-88.2978	5.11785E-010	-0.799701	6
	39	244	495.793	1599.78	-54981.2	1	55004.5	-88.3333	5.56539E-010	-0.899676	6
	40	250	495.793	1591.64	-55596.8	1	55619.6	-88.3602	5.34436E-010	-0.99964	6
	41	255	495.793	1590.62	-56187.6	1	56210.1	-88.3784	5.12129E-010	-1.09969	6
	42	261	495.793	1601.05	-56740.9	1	56763.5	-88.3837	5.11073E-010	-1.19964	6
	43	266	495.793	1622.84	-57245.4	1	57268.4	-88.3762	4.57809E-010	-1.29958	6
	44	272	495.793	1682.69	-57679.2	1	57703.8	-88.329	4.61996E-010	-1.39956	6
	45	278	495.793	1772.28	-57995.9	1	58023	-88.2497	3.98496E-010	-1.49951	6
	46	283	495.793	1796.5	-58193	1	58220.7	-88.2318	3.60866E-010	-1.59944	6
	47	289	495.793	1773.73	-58317.1	1	58344.1	-88.2579	4.09989E-010	-1.69938	6
	48	294	495.793	1740.64	-58384	1	58410	-88.2923	3.58468E-010	-1.79932	6
	49	299	495.793	1712.51	-58345.5	1	58370.6	-88.3188	3.72313E-010	-1.89931	6
	50	305	495.793	1670.76	-58238.3	1	58262.3	-88.3567	3.29354E-010	-1.99925	6
	51	311	495.793	1634.94	-58139.1	1	58162.1	-88.3892	3.47021E-010	-2.09924	6
	52	316	495.793	1599.83	-58044.2	1	58066.2	-88.4212	2.50423E-010	-2.1992	6
	53	321	495.793	1572.18	-57963	1	57984.3	-88.4463	3.55296E-010	-2.29919	6
	54	326	495.793	1552	-57888.4	1	57909.2	-88.4643	3.43935E-010	-2.39912	6
	55	332	495.793	1532.5	-57825.9	1	57846.2	-88.4819	2.75723E-010	-2.49909	6
	56	337	495.793	1528.2	-57764.7	1	57785	-88.4846	3.39747E-010	-2.59904	6
	57	342	495.793	1531.23	-57664.3	1	57684.7	-88.4789	3.00758E-010	-2.69903	6
	58	347	495.793	1540.14	-57578.3	1	57598.9	-88.4678	3.53811E-010	-2.799	6
	59	353	495.793	1577.16	-57475	1	57496.7	-88.4282	2.79521E-010	-2.89891	6
	60	358	495.793	1650.44	-57334.5	1	57358.3	-88.3511	3.45747E-010	-2.99888	6

File: C0_MS_pH4_04a.DTA
EXPLAIN
TAG	MOTTSCHOTTKY
TITLE	LABEL	Mott-Schottky	Test &Identifier
DATE	LABEL	29-10-2009	Date
TIME	LABEL	22:25:03	Time
NOTES	NOTES	2	&Notes...
	Si/SiO2
	T=25.3oC
PSTAT	PSTAT	REF600-07089	Potentiostat
VINIT	POTEN	3.00000E+000	F	Initial &Voltage (V)
VFINAL	POTEN	-3.00000E+000	F	Final &Voltage (V)
VSTEP	QUANT	1.00000E-001	&Voltage Step (V)
FREQINIT	QUANT	5.00000E+002	Fre&quency (Hz)
VAC	QUANT	1.00000E+001	AC &Voltage (mV rms)
AREA	QUANT	1.00000E-002	&Area (cm^2)
CONDIT	TWOPARAM	T	2.00000E+001	3.00000E+000	Conditionin&g	Time(s)	E(V)
DELAY	TWOPARAM	T	2.50000E-001	0.00000E+000	Init. De&lay	Time(s)	Stab.(mV/s)
SPEED	SELECTOR	1	&Optimize for:
ZGUESS	QUANT	1.00000E+002	E&stimated Z (ohms)
OCVCURVE	TABLE	1
	Pt	T	Vf	Vm	Ach	Over
	#	s	V vs. Ref.	V	V	bits
	0	0.258333	3.65892E+000	0.00000E+000	1.80797E-004	.............
EOC	QUANT	3.65892	Open Circuit (V)
PSTATMODEL	IQUANT	4	Pstat Model
PSTATSECTION	LABEL	REF600-07089	Pstat Section
PSTATSERIALNO	LABEL	07089	Pstat Serial Number
CTRLMODE	IQUANT	1	Control Mode
IESTAB	IQUANT	0	I/E Stability
CASPEED	IQUANT	2	Control Amp Speed
CONVENTION	IQUANT	1	Current Convention
ICHRANGE	IQUANT	2	Ich Range
ICHRANGEMODE	TOGGLE	F	Ich Auto Range
ICHOFFSETENABLE	TOGGLE	T	Ich Offset Enable
ICHOFFSET	QUANT	0	Ich Offset (V)
ICHFILTER	IQUANT	3	Ich Filter
VCHRANGE	IQUANT	2	Vch Range
VCHRANGEMODE	TOGGLE	F	Vch Auto Range
VCHOFFSETENABLE	TOGGLE	T	Vch Offset Enable
VCHOFFSET	QUANT	0	Vch Offset (V)
VCHFILTER	IQUANT	3	Vch Filter
ACHRANGE	IQUANT	2	Ach Range
ACHOFFSETENABLE	TOGGLE	F	Ach Offset Enable
ACHOFFSET	QUANT	0	Ach Offset (V)
ACHFILTER	IQUANT	2	Ach Filter
IERANGELOWERLIMIT	IQUANT	1	I/E Range Lower Limit
IERANGEMODE	TOGGLE	F	I/E AutoRange
IERANGE	IQUANT	10	I/E Range
POSFEEDENABLE	TOGGLE	F	Positive Feedback IR Comp
POSFEEDRESISTANCE	QUANT	0	Positive Feedback Resistance (ohm)
ACHSELECT	IQUANT	0	Ach Select
CABLEID	IQUANT	14	Cable ID
DCCALDATE	LABEL	14-4-2009	DC Calibration Date
ACCALDATE	LABEL	14-4-2009	AC Calibration Date
THERMOSELECT	IQUANT	0	Thermo Select
FRAMEWORKVERSION	QUANT	5.5	Framework Version
INSTRUMENTVERSION	LABEL	2.00	Instrument Version
ZCURVE	TABLE
	Pt	Time	Freq	Zreal	Zimag	Zsig	Zmod	Zphz	Idc	Vdc	IERange
	#	s	Hz	ohm	ohm	V	ohm	°	A	V	#
	0	10	495.793	1377.7	-37865.5	1	37890.6	-87.9163	1.08415E-008	2.9989	7
	1	15	495.793	1376.41	-37917.1	1	37942.1	-87.9211	8.50257E-009	2.89897	7
	2	21	495.793	1381.54	-37964.3	1	37989.5	-87.9159	7.05773E-009	2.79902	7
	3	26	495.793	1382.09	-38024.7	1	38049.8	-87.9184	6.73283E-009	2.69906	7
	4	32	495.793	1386.5	-38087.5	1	38112.7	-87.9152	6.41095E-009	2.59908	7
	5	37	495.793	1387.08	-38152.4	1	38177.6	-87.9179	5.82952E-009	2.49916	7
	6	44	495.793	1379.53	-38222.1	1	38247	-87.933	5.51353E-009	2.39919	7
	7	50	495.793	1387.02	-38315.1	1	38340.2	-87.9268	5.90575E-009	2.29924	7
	8	56	495.793	1385.27	-38405.6	1	38430.6	-87.9343	5.16893E-009	2.19926	7
	9	62	495.793	1380.25	-38511.9	1	38536.6	-87.9474	4.74324E-009	2.09929	7
	10	68	495.793	1386.43	-38635.6	1	38660.4	-87.9448	5.74372E-009	1.99931	7
	11	74	495.793	1386.07	-38764.4	1	38789.1	-87.9522	5.88015E-009	1.89938	7
	12	80	495.793	1388.15	-38917.2	1	38941.9	-87.9572	5.53154E-009	1.79938	7
	13	86	495.793	1391.45	-39097.2	1	39122	-87.9617	5.43403E-009	1.69947	7
	14	92	495.793	1397.83	-39294.7	1	39319.5	-87.9627	5.43975E-009	1.59959	7
	15	97	495.793	1398.15	-39523.8	1	39548.5	-87.974	5.81863E-009	1.49963	7
	16	103	495.793	1397.06	-39786.3	1	39810.9	-87.9889	5.83342E-009	1.39965	7
	17	109	495.793	1398.75	-40087.6	1	40112	-88.0016	6.0451E-009	1.2997	7
	18	115	495.793	1406.35	-40433.5	1	40458	-88.0079	5.71575E-009	1.19976	7
	19	121	495.793	1405.66	-40814.5	1	40838.7	-88.0275	4.90073E-009	1.09972	7
	20	127	495.793	1413.8	-41266.2	1	41290.4	-88.0378	4.81554E-009	0.99973	7
	21	133	495.793	1415.4	-41762.1	1	41786.1	-88.0589	5.26499E-009	0.899791	7
	22	139	495.793	1415.24	-42300.7	1	42324.4	-88.0838	5.50107E-009	0.799842	7
	23	145	495.793	1430.64	-42879.9	1	42903.7	-88.0891	5.5174E-009	0.699886	7
	24	151	495.793	1439.23	-43485.8	1	43509.6	-88.1044	5.52798E-009	0.599909	7
	25	157	495.793	1450.17	-44129.2	1	44153.1	-88.1178	5.00141E-009	0.499979	7
	26	163	495.793	1455.19	-44774.6	1	44798.3	-88.1385	6.06908E-009	0.400013	7
	27	169	495.793	1460.18	-45423.7	1	45447.2	-88.1588	5.78595E-009	0.300081	7
	28	175	495.793	1481.93	-46071.6	1	46095.5	-88.1577	5.43027E-009	0.200098	7
	29	181	495.793	1524.62	-46733.5	1	46758.3	-88.1315	5.72844E-009	0.100184	7
	30	187	495.793	1585.51	-47417.2	1	47443.7	-88.0849	5.19752E-009	0.00021	7
	31	193	495.793	1706.87	-48179.2	1	48209.4	-87.971	5.8158E-009	-0.100024	7
	32	199	495.793	1842.44	-49051.7	1	49086.3	-87.8489	6.26089E-009	-0.199965	7
	33	205	495.793	1954.99	-50048.6	1	50086.8	-87.7631	6.29942E-009	-0.299948	7
	34	211	495.793	1929.35	-51126.4	1	51162.8	-87.8389	6.03819E-010	-0.399888	6
	35	216	495.793	1826.65	-52101.6	1	52133.6	-87.9921	6.16696E-010	-0.49986	6
	36	222	495.793	1712.96	-52947.8	1	52975.5	-88.147	5.64854E-010	-0.599792	6
	37	227	495.793	1634.82	-53677	1	53701.9	-88.2555	6.10625E-010	-0.699772	6
	38	233	495.793	1593.82	-54340.9	1	54364.3	-88.32	5.5468E-010	-0.799695	6
	39	238	495.793	1577.42	-54985.2	1	55007.8	-88.3567	5.9267E-010	-0.899677	6
	40	244	495.793	1574.98	-55599.7	1	55622	-88.3774	5.29481E-010	-0.99964	6
	41	249	495.793	1581.66	-56187	1	56209.2	-88.3876	4.6838E-010	-1.09969	6
	42	255	495.793	1576.25	-56747.6	1	56769.5	-88.4089	5.36606E-010	-1.19965	6
	43	260	495.793	1600.96	-57255	1	57277.4	-88.3983	5.22645E-010	-1.29958	6
	44	266	495.793	1663.31	-57687.6	1	57711.6	-88.3484	5.53705E-010	-1.39956	6
	45	271	495.793	1750.27	-58004.7	1	58031.1	-88.2716	5.27943E-010	-1.49952	6
	46	277	495.793	1784.34	-58209.4	1	58236.8	-88.2442	4.45238E-010	-1.59944	6
	47	282	495.793	1766.43	-58333.8	1	58360.5	-88.2655	4.45237E-010	-1.69938	6
	48	289	495.793	1729.1	-58387.1	1	58412.7	-88.3037	3.6589E-010	-1.79933	6
	49	294	495.793	1706.53	-58342.1	1	58367	-88.3245	4.91743E-010	-1.89932	6
	50	299	495.793	1662.23	-58247.9	1	58271.6	-88.3654	4.22789E-010	-1.99926	6
	51	304	495.793	1629.94	-58129.6	1	58152.5	-88.3939	4.18648E-010	-2.09925	6
	52	310	495.793	1599.91	-58032.8	1	58054.9	-88.4208	3.5642E-010	-2.1992	6
	53	315	495.793	1571.47	-57952.5	1	57973.8	-88.4467	3.11728E-010	-2.29918	6
	54	320	495.793	1551.34	-57878.9	1	57899.7	-88.4647	3.56951E-010	-2.39913	6
	55	326	495.793	1537.12	-57786.1	1	57806.5	-88.4763	3.04249E-010	-2.49909	6
	56	331	495.793	1538.83	-57703.3	1	57723.9	-88.4724	3.26807E-010	-2.59904	6
	57	336	495.793	1544.75	-57607.6	1	57628.3	-88.464	2.50993E-010	-2.69901	6
	58	341	495.793	1574.86	-57503.6	1	57525.2	-88.4312	3.36285E-010	-2.79899	6
	59	347	495.793	1643.05	-57369.6	1	57393.1	-88.3595	2.92905E-010	-2.89889	6
	60	352	495.793	1734.7	-57169.1	1	57195.5	-88.262	3.02133E-010	-2.99887	6