Folder: Scientific_Analysis_MN/OriginPro/EIS (part 8)

File: C0_MS_pH10_03a.DTA
EXPLAIN
TAG	MOTTSCHOTTKY
TITLE	LABEL	Mott-Schottky	Test &Identifier
DATE	LABEL	29-10-2009	Date
TIME	LABEL	23:38:24	Time
NOTES	NOTES	2	&Notes...
	Si/SiO2
	T=25.3oC
PSTAT	PSTAT	REF600-07089	Potentiostat
VINIT	POTEN	-3.00000E+000	F	Initial &Voltage (V)
VFINAL	POTEN	3.00000E+000	F	Final &Voltage (V)
VSTEP	QUANT	1.00000E-001	&Voltage Step (V)
FREQINIT	QUANT	1.00000E+003	Fre&quency (Hz)
VAC	QUANT	1.00000E+001	AC &Voltage (mV rms)
AREA	QUANT	1.00000E-002	&Area (cm^2)
CONDIT	TWOPARAM	T	2.00000E+001	-3.00000E+000	Conditionin&g	Time(s)	E(V)
DELAY	TWOPARAM	T	2.50000E-001	0.00000E+000	Init. De&lay	Time(s)	Stab.(mV/s)
SPEED	SELECTOR	1	&Optimize for:
ZGUESS	QUANT	1.00000E+002	E&stimated Z (ohms)
OCVCURVE	TABLE	1
	Pt	T	Vf	Vm	Ach	Over
	#	s	V vs. Ref.	V	V	bits
	0	0.258333	-2.06628E+000	0.00000E+000	-3.21368E-004	.............
EOC	QUANT	-2.06628	Open Circuit (V)
PSTATMODEL	IQUANT	4	Pstat Model
PSTATSECTION	LABEL	REF600-07089	Pstat Section
PSTATSERIALNO	LABEL	07089	Pstat Serial Number
CTRLMODE	IQUANT	1	Control Mode
IESTAB	IQUANT	0	I/E Stability
CASPEED	IQUANT	2	Control Amp Speed
CONVENTION	IQUANT	1	Current Convention
ICHRANGE	IQUANT	2	Ich Range
ICHRANGEMODE	TOGGLE	F	Ich Auto Range
ICHOFFSETENABLE	TOGGLE	T	Ich Offset Enable
ICHOFFSET	QUANT	0	Ich Offset (V)
ICHFILTER	IQUANT	3	Ich Filter
VCHRANGE	IQUANT	2	Vch Range
VCHRANGEMODE	TOGGLE	F	Vch Auto Range
VCHOFFSETENABLE	TOGGLE	T	Vch Offset Enable
VCHOFFSET	QUANT	0	Vch Offset (V)
VCHFILTER	IQUANT	3	Vch Filter
ACHRANGE	IQUANT	2	Ach Range
ACHOFFSETENABLE	TOGGLE	F	Ach Offset Enable
ACHOFFSET	QUANT	0	Ach Offset (V)
ACHFILTER	IQUANT	1	Ach Filter
IERANGELOWERLIMIT	IQUANT	1	I/E Range Lower Limit
IERANGEMODE	TOGGLE	F	I/E AutoRange
IERANGE	IQUANT	10	I/E Range
POSFEEDENABLE	TOGGLE	F	Positive Feedback IR Comp
POSFEEDRESISTANCE	QUANT	0	Positive Feedback Resistance (ohm)
ACHSELECT	IQUANT	0	Ach Select
CABLEID	IQUANT	14	Cable ID
DCCALDATE	LABEL	14-4-2009	DC Calibration Date
ACCALDATE	LABEL	14-4-2009	AC Calibration Date
THERMOSELECT	IQUANT	0	Thermo Select
FRAMEWORKVERSION	QUANT	5.5	Framework Version
INSTRUMENTVERSION	LABEL	2.00	Instrument Version
ZCURVE	TABLE
	Pt	Time	Freq	Zreal	Zimag	Zsig	Zmod	Zphz	Idc	Vdc	IERange
	#	s	Hz	ohm	ohm	V	ohm	°	A	V	#
	0	11	998.26	1870.96	-27915.7	1	27978.3	-86.1657	1.6098E-008	-2.99887	7
	1	16	998.26	1798.48	-27180.8	1	27240.2	-86.2144	1.32396E-008	-2.89889	7
	2	22	998.26	1771.97	-26818.6	1	26877.1	-86.2198	1.3161E-008	-2.79897	7
	3	28	998.26	1782.19	-26964.7	1	27023.5	-86.2186	1.06587E-008	-2.699	7
	4	34	998.26	1916.2	-26901	1	26969.1	-85.9256	3.47347E-010	-2.59904	7
	5	40	998.26	1843.41	-26944.6	1	27007.6	-86.0862	2.09633E-009	-2.4991	7
	6	46	998.26	1969.49	-27015	1	27086.7	-85.8303	8.41689E-009	-2.3991	7
	7	52	998.26	1794.92	-27325.6	1	27384.5	-86.2418	2.59499E-009	-2.29919	7
	8	58	998.26	1986.97	-27442.3	1	27514.2	-85.8587	9.35475E-009	-2.19918	7
	9	64	998.26	1886.18	-27638.7	1	27703	-86.096	1.18452E-008	-2.09922	7
	10	70	998.26	1915.13	-27846.4	1	27912.2	-86.0657	2.76507E-009	-1.99925	7
	11	76	998.26	1760.54	-27861.3	1	27916.9	-86.3843	3.57338E-009	-1.8993	7
	12	82	998.26	1602.93	-27879.5	1	27925.5	-86.7094	8.76337E-009	-1.7993	7
	13	88	998.26	1651.15	-27631.8	1	27681.1	-86.5803	5.93002E-009	-1.69936	7
	14	94	998.26	1470.31	-27457.1	1	27496.5	-86.9348	1.0686E-008	-1.59941	7
	15	100	998.26	1565.48	-27259.1	1	27304	-86.7131	1.11721E-008	-1.49948	7
	16	106	998.26	1487.88	-26894	1	26935.2	-86.8334	1.99882E-009	-1.39956	7
	17	111	998.26	1581.16	-26640.2	1	26687.1	-86.6034	1.08708E-009	-1.29958	7
	18	117	998.26	1376.12	-26418.3	1	26454.2	-87.0182	9.34553E-009	-1.19963	7
	19	123	998.26	1445.94	-26123.2	1	26163.2	-86.8319	6.96814E-010	-1.09969	7
	20	129	998.26	1456.73	-25759.2	1	25800.4	-86.7633	-5.46046E-010	-0.99966	7
	21	135	998.26	1498.12	-25373.8	1	25418	-86.6211	1.25586E-008	-0.899662	7
	22	141	998.26	1576.71	-25135.4	1	25184.8	-86.4106	5.24524E-009	-0.799696	7
	23	147	998.26	1777.77	-24574.6	1	24638.8	-85.8623	4.58859E-008	-0.699744	8
	24	154	998.26	1685.58	-24085.2	1	24144.1	-85.9967	1.98973E-010	-0.5998	7
	25	159	998.26	1542.76	-23728	1	23778.1	-86.2799	7.65188E-009	-0.499871	8
	26	165	998.26	1772.47	-22999.8	1	23068	-85.5932	1.89029E-008	-0.399893	8
	27	171	998.26	1519.59	-22828.6	1	22879.2	-86.1917	1.33119E-008	-0.299914	7
	28	177	998.26	1409.75	-22448.2	1	22492.4	-86.4065	2.90343E-009	-0.199978	7
	29	183	998.26	1388.43	-22202.6	1	22246	-86.4217	1.08648E-008	-0.100021	7
	30	188	998.26	1459.2	-21852.8	1	21901.4	-86.1798	1.30603E-008	0.000232	7
	31	194	998.26	1428.22	-21596	1	21643.2	-86.2163	8.94053E-009	0.1002	7
	32	200	998.26	1378.48	-21126.5	1	21171.4	-86.2668	2.08509E-009	0.200096	7
	33	205	998.26	1382.04	-20896.8	1	20942.5	-86.2162	7.93241E-009	0.300081	7
	34	211	998.26	1321.16	-20531.4	1	20573.9	-86.3182	4.67416E-009	0.400014	7
	35	216	998.26	1403.44	-20324.9	1	20373.3	-86.05	1.18714E-009	0.499964	7
	36	222	998.26	1369.61	-20060.3	1	20107	-86.0942	1.11176E-008	0.599929	7
	37	227	998.26	1362.96	-19821.4	1	19868.2	-86.0664	1.92577E-009	0.699879	7
	38	232	998.26	1409.85	-19657.2	1	19707.7	-85.8977	7.82892E-009	0.799839	7
	39	238	998.26	1451.38	-19417.6	1	19471.8	-85.7253	4.09057E-009	0.899777	7
	40	243	998.26	1351.56	-19269.5	1	19316.8	-85.9879	1.21563E-008	0.99975	7
	41	248	998.26	1390.6	-19190.6	1	19240.9	-85.8554	1.07132E-009	1.0997	7
	42	254	998.26	1366.03	-19053.4	1	19102.3	-85.8992	7.44598E-009	1.19975	7
	43	259	998.26	1361.57	-18936	1	18984.9	-85.8873	1.00271E-008	1.29971	7
	44	264	998.26	1349.86	-18825.2	1	18873.5	-85.8986	7.86634E-009	1.39966	7
	45	270	998.26	1350.36	-18748.9	1	18797.4	-85.8805	2.93963E-009	1.49962	7
	46	275	998.26	1346.83	-18629.9	1	18678.5	-85.8651	6.05655E-009	1.59958	7
	47	280	998.26	1389.83	-18606.4	1	18658.2	-85.7282	1.77749E-009	1.69945	7
	48	286	998.26	1318.79	-18497	1	18544	-85.9219	2.51579E-009	1.79936	7
	49	291	998.26	1379.98	-18515.5	1	18566.9	-85.7376	1.67079E-009	1.89935	7
	50	296	998.26	1266.21	-18402.5	1	18446	-86.0639	7.03507E-009	1.99932	7
	51	302	998.26	1361.4	-18428.6	1	18478.8	-85.775	6.04071E-010	2.09926	7
	52	307	998.26	1349.68	-18395.8	1	18445.3	-85.8038	1.0978E-008	2.19925	7
	53	312	998.26	1368.61	-18336	1	18387	-85.7313	5.96921E-009	2.29924	7
	54	318	998.26	1345.96	-18322.4	1	18371.7	-85.7986	3.24696E-009	2.39918	7
	55	323	998.26	1342.61	-18286.7	1	18335.9	-85.8009	-8.10357E-010	2.49912	7
	56	328	998.26	1360.14	-18221.9	1	18272.6	-85.7312	1.58024E-009	2.59906	7
	57	334	998.26	1364.17	-18260.9	1	18311.8	-85.7277	2.76495E-009	2.69904	7
	58	339	998.26	1314.78	-18198.7	1	18246.2	-85.8678	1.52016E-008	2.79903	7
	59	344	998.26	1371.75	-18224.6	1	18276.1	-85.6955	1.32614E-008	2.89897	7
	60	350	998.26	1327.99	-18191.2	1	18239.6	-85.8247	4.33504E-009	2.9989	7

File: C0_MS_pH10_04.DTA
EXPLAIN
TAG	MOTTSCHOTTKY
TITLE	LABEL	Mott-Schottky	Test &Identifier
DATE	LABEL	30-10-2009	Date
TIME	LABEL	0:08:34	Time
NOTES	NOTES	2	&Notes...
	Si/SiO2
	T=25.3oC
PSTAT	PSTAT	REF600-07089	Potentiostat
VINIT	POTEN	3.00000E+000	F	Initial &Voltage (V)
VFINAL	POTEN	-3.00000E+000	F	Final &Voltage (V)
VSTEP	QUANT	1.00000E-001	&Voltage Step (V)
FREQINIT	QUANT	5.00000E+002	Fre&quency (Hz)
VAC	QUANT	1.00000E+001	AC &Voltage (mV rms)
AREA	QUANT	1.00000E-002	&Area (cm^2)
CONDIT	TWOPARAM	T	2.00000E+001	3.00000E+000	Conditionin&g	Time(s)	E(V)
DELAY	TWOPARAM	T	2.50000E-001	0.00000E+000	Init. De&lay	Time(s)	Stab.(mV/s)
SPEED	SELECTOR	1	&Optimize for:
ZGUESS	QUANT	1.00000E+002	E&stimated Z (ohms)
OCVCURVE	TABLE	1
	Pt	T	Vf	Vm	Ach	Over
	#	s	V vs. Ref.	V	V	bits
	0	0.258333	3.65784E+000	0.00000E+000	-1.95703E-004	.............
EOC	QUANT	3.65784	Open Circuit (V)
PSTATMODEL	IQUANT	4	Pstat Model
PSTATSECTION	LABEL	REF600-07089	Pstat Section
PSTATSERIALNO	LABEL	07089	Pstat Serial Number
CTRLMODE	IQUANT	1	Control Mode
IESTAB	IQUANT	0	I/E Stability
CASPEED	IQUANT	2	Control Amp Speed
CONVENTION	IQUANT	1	Current Convention
ICHRANGE	IQUANT	2	Ich Range
ICHRANGEMODE	TOGGLE	F	Ich Auto Range
ICHOFFSETENABLE	TOGGLE	T	Ich Offset Enable
ICHOFFSET	QUANT	0	Ich Offset (V)
ICHFILTER	IQUANT	3	Ich Filter
VCHRANGE	IQUANT	2	Vch Range
VCHRANGEMODE	TOGGLE	F	Vch Auto Range
VCHOFFSETENABLE	TOGGLE	T	Vch Offset Enable
VCHOFFSET	QUANT	0	Vch Offset (V)
VCHFILTER	IQUANT	3	Vch Filter
ACHRANGE	IQUANT	2	Ach Range
ACHOFFSETENABLE	TOGGLE	F	Ach Offset Enable
ACHOFFSET	QUANT	0	Ach Offset (V)
ACHFILTER	IQUANT	1	Ach Filter
IERANGELOWERLIMIT	IQUANT	1	I/E Range Lower Limit
IERANGEMODE	TOGGLE	F	I/E AutoRange
IERANGE	IQUANT	10	I/E Range
POSFEEDENABLE	TOGGLE	F	Positive Feedback IR Comp
POSFEEDRESISTANCE	QUANT	0	Positive Feedback Resistance (ohm)
ACHSELECT	IQUANT	0	Ach Select
CABLEID	IQUANT	14	Cable ID
DCCALDATE	LABEL	14-4-2009	DC Calibration Date
ACCALDATE	LABEL	14-4-2009	AC Calibration Date
THERMOSELECT	IQUANT	0	Thermo Select
FRAMEWORKVERSION	QUANT	5.5	Framework Version
INSTRUMENTVERSION	LABEL	2.00	Instrument Version
ZCURVE	TABLE
	Pt	Time	Freq	Zreal	Zimag	Zsig	Zmod	Zphz	Idc	Vdc	IERange
	#	s	Hz	ohm	ohm	V	ohm	°	A	V	#
	0	10	495.793	1725.79	-35982.3	1	36023.6	-87.2541	1.26074E-008	2.99889	7
	1	16	495.793	1726.9	-36016.9	1	36058.3	-87.2549	1.03894E-008	2.89894	7
	2	21	495.793	1723.52	-36049.7	1	36090.9	-87.2628	9.31616E-009	2.79898	7
	3	26	495.793	1731.21	-36092.6	1	36134.1	-87.2539	8.03301E-009	2.69905	7
	4	32	495.793	1730.49	-36122.7	1	36164.2	-87.2573	6.79569E-009	2.59906	7
	5	38	495.793	1731.12	-36181.8	1	36223.1	-87.2608	7.08617E-009	2.49913	7
	6	44	495.793	1733	-36228.2	1	36269.7	-87.2613	6.62838E-009	2.39917	7
	7	50	495.793	1727.08	-36284.2	1	36325.3	-87.2749	7.00344E-009	2.29921	7
	8	55	495.793	1733.21	-36346.8	1	36388.1	-87.2699	7.11459E-009	2.19923	7
	9	61	495.793	1739.79	-36420	1	36461.5	-87.265	6.2345E-009	2.09927	7
	10	66	495.793	1737.1	-36497.3	1	36538.6	-87.275	6.48165E-009	1.99929	7
	11	72	495.793	1736.1	-36581.8	1	36622.9	-87.2829	6.2274E-009	1.89936	7
	12	78	495.793	1732.65	-36680.1	1	36721	-87.2955	6.0557E-009	1.79936	7
	13	84	495.793	1741.71	-36784.2	1	36825.4	-87.2891	6.19328E-009	1.69944	7
	14	90	495.793	1736.87	-36905.5	1	36946.3	-87.3055	6.39491E-009	1.59956	7
	15	96	495.793	1745.01	-37041.6	1	37082.7	-87.3028	5.96924E-009	1.49962	7
	16	102	495.793	1749.44	-37203.6	1	37244.7	-87.3077	5.84946E-009	1.39963	7
	17	108	495.793	1748.02	-37382	1	37422.9	-87.3227	5.55243E-009	1.29968	7
	18	114	495.793	1746.99	-37587.1	1	37627.7	-87.3389	5.96105E-009	1.19974	7
	19	120	495.793	1757.86	-37820.8	1	37861.6	-87.3389	5.40699E-009	1.0997	7
	20	126	495.793	1759.48	-38095.7	1	38136.3	-87.3556	6.38645E-009	0.99972	7
	21	131	495.793	1762.37	-38414.4	1	38454.8	-87.3732	6.9045E-009	0.899777	7
	22	137	495.793	1772.83	-38767.7	1	38808.2	-87.3817	6.39002E-009	0.799825	7
	23	143	495.793	1783.86	-39169.2	1	39209.8	-87.3924	5.77075E-009	0.699859	7
	24	149	495.793	1778.66	-39621.3	1	39661.2	-87.4296	6.10754E-009	0.599888	7
	25	155	495.793	1792.16	-40119	1	40159	-87.4422	6.04605E-009	0.499954	7
	26	161	495.793	1802.99	-40655.7	1	40695.6	-87.4607	6.51829E-009	0.399998	7
	27	167	495.793	1806.86	-41230.2	1	41269.7	-87.4907	5.68315E-009	0.300061	7
	28	173	495.793	1813.15	-41825.7	1	41865	-87.5178	5.64095E-009	0.200086	7
	29	179	495.793	1831.61	-42433.5	1	42473	-87.5284	5.07018E-009	0.100167	7
	30	185	495.793	1845.32	-43052	1	43091.6	-87.5457	5.52252E-009	0.000197	7
	31	191	495.793	1863.7	-43663.5	1	43703.3	-87.5559	5.67731E-009	-0.100038	7
	32	197	495.793	1894.8	-44285.8	1	44326.3	-87.55	6.15988E-009	-0.199981	7
	33	203	495.793	1950.41	-44928	1	44970.4	-87.5142	5.4397E-009	-0.299955	7
	34	209	495.793	2053.09	-45623.4	1	45669.6	-87.4234	5.38286E-009	-0.399888	7
	35	215	495.793	2180.93	-46416.8	1	46468	-87.3099	5.60891E-009	-0.499862	7
	36	221	495.793	2301.26	-47318.6	1	47374.6	-87.2157	6.0375E-009	-0.5998	7
	37	227	495.793	2339.15	-48306	1	48362.6	-87.2277	5.74368E-009	-0.69977	7
	38	233	495.793	2279.76	-49274.1	1	49326.8	-87.351	5.57354E-009	-0.799706	7
	39	239	495.793	2168.8	-50118.9	1	50165.8	-87.5222	6.18761E-009	-0.899674	7
	40	245	495.793	2080.87	-50846.3	1	50888.8	-87.6565	6.58209E-010	-0.99964	6
	41	250	495.793	2036.48	-51500.7	1	51540.9	-87.7355	5.97153E-010	-1.0997	6
	42	256	495.793	2020.68	-52115.7	1	52154.9	-87.7796	5.86818E-010	-1.19964	6
	43	262	495.793	2017.38	-52706.2	1	52744.8	-87.808	6.21789E-010	-1.29958	6
	44	267	495.793	2025.26	-53269	1	53307.4	-87.8227	5.95606E-010	-1.39956	6
	45	273	495.793	2053.36	-53807.3	1	53846.5	-87.8146	5.82918E-010	-1.49952	6
	46	278	495.793	2103.87	-54250.8	1	54291.6	-87.7792	6.20219E-010	-1.59943	6
	47	284	495.793	2142.67	-54613.6	1	54655.6	-87.7533	5.51976E-010	-1.69938	6
	48	289	495.793	2183.37	-54919.6	1	54962.9	-87.7234	5.63603E-010	-1.79933	6
	49	295	495.793	2203.19	-55132.4	1	55176.4	-87.7116	5.5822E-010	-1.8993	6
	50	301	495.793	2204.07	-55268.5	1	55312.5	-87.7163	5.43304E-010	-1.99925	6
	51	307	495.793	2181.72	-55374.7	1	55417.7	-87.7438	4.1864E-010	-2.09923	6
	52	312	495.793	2131.87	-55420.4	1	55461.4	-87.7971	4.56395E-010	-2.19919	6
	53	317	495.793	2097.28	-55434	1	55473.7	-87.8333	4.45113E-010	-2.29919	6
	54	323	495.793	2071.6	-55422.2	1	55460.9	-87.8594	4.48409E-010	-2.39911	6
	55	328	495.793	2088.08	-55381.9	1	55421.2	-87.8408	4.16154E-010	-2.49908	6
	56	333	495.793	2142.41	-55289.3	1	55330.8	-87.7809	3.29613E-010	-2.59903	6
	57	338	495.793	2216.38	-55110.7	1	55155.2	-87.697	3.63859E-010	-2.699	6
	58	344	495.793	2265.22	-54879.8	1	54926.5	-87.6364	4.03458E-010	-2.79898	6
	59	349	495.793	2277.85	-54657.5	1	54705	-87.6136	3.49749E-010	-2.89889	6
	60	354	495.793	2260.49	-54464.9	1	54511.8	-87.6234	2.6987E-010	-2.99887	6

File: C0_MS_pH10_04a.DTA
EXPLAIN
TAG	MOTTSCHOTTKY
TITLE	LABEL	Mott-Schottky	Test &Identifier
DATE	LABEL	30-10-2009	Date
TIME	LABEL	0:15:56	Time
NOTES	NOTES	2	&Notes...
	Si/SiO2
	T=25.3oC
PSTAT	PSTAT	REF600-07089	Potentiostat
VINIT	POTEN	3.00000E+000	F	Initial &Voltage (V)
VFINAL	POTEN	-3.00000E+000	F	Final &Voltage (V)
VSTEP	QUANT	1.00000E-001	&Voltage Step (V)
FREQINIT	QUANT	5.00000E+002	Fre&quency (Hz)
VAC	QUANT	1.00000E+001	AC &Voltage (mV rms)
AREA	QUANT	1.00000E-002	&Area (cm^2)
CONDIT	TWOPARAM	T	2.00000E+001	3.00000E+000	Conditionin&g	Time(s)	E(V)
DELAY	TWOPARAM	T	2.50000E-001	0.00000E+000	Init. De&lay	Time(s)	Stab.(mV/s)
SPEED	SELECTOR	1	&Optimize for:
ZGUESS	QUANT	1.00000E+002	E&stimated Z (ohms)
OCVCURVE	TABLE	1
	Pt	T	Vf	Vm	Ach	Over
	#	s	V vs. Ref.	V	V	bits
	0	0.258333	3.64530E+000	0.00000E+000	1.32931E-004	.............
EOC	QUANT	3.6453	Open Circuit (V)
PSTATMODEL	IQUANT	4	Pstat Model
PSTATSECTION	LABEL	REF600-07089	Pstat Section
PSTATSERIALNO	LABEL	07089	Pstat Serial Number
CTRLMODE	IQUANT	1	Control Mode
IESTAB	IQUANT	0	I/E Stability
CASPEED	IQUANT	2	Control Amp Speed
CONVENTION	IQUANT	1	Current Convention
ICHRANGE	IQUANT	2	Ich Range
ICHRANGEMODE	TOGGLE	F	Ich Auto Range
ICHOFFSETENABLE	TOGGLE	T	Ich Offset Enable
ICHOFFSET	QUANT	0	Ich Offset (V)
ICHFILTER	IQUANT	3	Ich Filter
VCHRANGE	IQUANT	2	Vch Range
VCHRANGEMODE	TOGGLE	F	Vch Auto Range
VCHOFFSETENABLE	TOGGLE	T	Vch Offset Enable
VCHOFFSET	QUANT	0	Vch Offset (V)
VCHFILTER	IQUANT	3	Vch Filter
ACHRANGE	IQUANT	2	Ach Range
ACHOFFSETENABLE	TOGGLE	F	Ach Offset Enable
ACHOFFSET	QUANT	0	Ach Offset (V)
ACHFILTER	IQUANT	2	Ach Filter
IERANGELOWERLIMIT	IQUANT	1	I/E Range Lower Limit
IERANGEMODE	TOGGLE	F	I/E AutoRange
IERANGE	IQUANT	10	I/E Range
POSFEEDENABLE	TOGGLE	F	Positive Feedback IR Comp
POSFEEDRESISTANCE	QUANT	0	Positive Feedback Resistance (ohm)
ACHSELECT	IQUANT	0	Ach Select
CABLEID	IQUANT	14	Cable ID
DCCALDATE	LABEL	14-4-2009	DC Calibration Date
ACCALDATE	LABEL	14-4-2009	AC Calibration Date
THERMOSELECT	IQUANT	0	Thermo Select
FRAMEWORKVERSION	QUANT	5.5	Framework Version
INSTRUMENTVERSION	LABEL	2.00	Instrument Version
ZCURVE	TABLE
	Pt	Time	Freq	Zreal	Zimag	Zsig	Zmod	Zphz	Idc	Vdc	IERange
	#	s	Hz	ohm	ohm	V	ohm	°	A	V	#
	0	10	495.793	1747.18	-35939.5	1	35982	-87.2168	1.17218E-008	2.99889	7
	1	16	495.793	1746.88	-35973.5	1	36015.9	-87.2199	9.66299E-009	2.89895	7
	2	22	495.793	1744.59	-36008.9	1	36051.1	-87.2262	7.48601E-009	2.799	7
	3	28	495.793	1747.67	-36042.8	1	36085.1	-87.224	6.79158E-009	2.69905	7
	4	33	495.793	1754	-36087.5	1	36130.1	-87.2174	6.15826E-009	2.59907	7
	5	39	495.793	1752.29	-36137.2	1	36179.6	-87.2239	6.26581E-009	2.49913	7
	6	44	495.793	1745.94	-36187.4	1	36229.5	-87.2378	5.68405E-009	2.39917	7
	7	50	495.793	1757.74	-36245.1	1	36287.7	-87.2236	6.0662E-009	2.29921	7
	8	56	495.793	1751.18	-36308.4	1	36350.6	-87.2387	5.5451E-009	2.19923	7
	9	62	495.793	1757.05	-36378.4	1	36420.9	-87.2348	6.35492E-009	2.09927	7
	10	68	495.793	1755.66	-36450.8	1	36493.1	-87.2425	6.30103E-009	1.9993	7
	11	74	495.793	1759.3	-36531.3	1	36573.7	-87.2428	5.27175E-009	1.89936	7
	12	80	495.793	1765.13	-36636.2	1	36678.6	-87.2416	5.67719E-009	1.79935	7
	13	86	495.793	1761.61	-36740.2	1	36782.4	-87.2549	5.99006E-009	1.69944	7
	14	92	495.793	1761.79	-36863.2	1	36905.3	-87.2638	5.88488E-009	1.59957	7
	15	98	495.793	1766.48	-36999.3	1	37041.5	-87.2666	5.64477E-009	1.49961	7
	16	104	495.793	1770.58	-37157.8	1	37199.9	-87.2719	6.25482E-009	1.39963	7
	17	110	495.793	1775.93	-37332.3	1	37374.5	-87.2764	6.30935E-009	1.29969	7
	18	116	495.793	1779.11	-37540.1	1	37582.2	-87.2867	6.61093E-009	1.19975	7
	19	122	495.793	1790.7	-37769.8	1	37812.2	-87.2856	6.01723E-009	1.09971	7
	20	128	495.793	1778.14	-38045.4	1	38086.9	-87.3241	5.31181E-009	0.99973	7
	21	134	495.793	1787	-38348.4	1	38390	-87.332	5.52716E-009	0.899775	7
	22	140	495.793	1795.54	-38709.4	1	38751	-87.3442	5.80623E-009	0.799828	7
	23	146	495.793	1793.02	-39110.3	1	39151.4	-87.3751	6.28013E-009	0.699879	7
	24	152	495.793	1806.73	-39560.3	1	39601.5	-87.3851	6.02388E-009	0.599899	7
	25	158	495.793	1810.59	-40058.7	1	40099.6	-87.4121	5.82503E-009	0.499967	7
	26	164	495.793	1823.5	-40594.8	1	40635.7	-87.428	6.50962E-009	0.40001	7
	27	170	495.793	1830.73	-41168.8	1	41209.5	-87.4538	6.27214E-009	0.300067	7
	28	175	495.793	1843.53	-41760.4	1	41801.1	-87.4723	6.38216E-009	0.200094	7
	29	181	495.793	1859.04	-42369.9	1	42410.7	-87.4877	5.85335E-009	0.100179	7
	30	187	495.793	1868.25	-42984.2	1	43024.7	-87.5113	5.52959E-009	0.000204	7
	31	193	495.793	1889.86	-43590	1	43630.9	-87.5175	5.62625E-009	-0.100038	7
	32	199	495.793	1920.81	-44222.7	1	44264.4	-87.5129	6.05909E-009	-0.199978	7
	33	205	495.793	1976.79	-44848.7	1	44892.2	-87.4762	6.15164E-009	-0.299948	7
	34	211	495.793	2064.3	-45541.9	1	45588.7	-87.4047	5.82894E-009	-0.39989	7
	35	217	495.793	2199.6	-46335	1	46387.2	-87.2821	5.08423E-009	-0.499859	7
	36	223	495.793	2320.59	-47250.1	1	47307	-87.1883	5.50388E-009	-0.599795	7
	37	229	495.793	2362.26	-48225.6	1	48283.4	-87.1957	5.82208E-009	-0.699772	7
	38	235	495.793	2294.91	-49191.5	1	49245	-87.3289	5.82502E-009	-0.799699	7
	39	241	495.793	2197.09	-50033.7	1	50081.9	-87.4856	5.76729E-009	-0.899673	7
	40	247	495.793	2106.69	-50772.9	1	50816.5	-87.624	5.9248E-010	-0.99963	6
	41	252	495.793	2063.93	-51420.5	1	51461.9	-87.7015	5.55648E-010	-1.09968	6
	42	258	495.793	2045.69	-52035.7	1	52075.9	-87.7487	5.77645E-010	-1.19963	6
	43	263	495.793	2046.77	-52629.7	1	52669.5	-87.7729	6.41409E-010	-1.29957	6
	44	268	495.793	2054.83	-53189.4	1	53229	-87.7876	5.63453E-010	-1.39955	6
	45	274	495.793	2084.88	-53720.2	1	53760.7	-87.7775	5.18823E-010	-1.4995	6
	46	279	495.793	2130.47	-54176.4	1	54218.2	-87.748	5.86466E-010	-1.59942	6
	47	285	495.793	2169.45	-54543.4	1	54586.6	-87.7223	5.18114E-010	-1.69938	6
	48	290	495.793	2211.33	-54846.2	1	54890.7	-87.6912	4.72373E-010	-1.79932	6
	49	296	495.793	2242.03	-55075.9	1	55121.5	-87.6689	4.71145E-010	-1.8993	6
	50	302	495.793	2237.92	-55221.4	1	55266.7	-87.6793	4.07942E-010	-1.99924	6
	51	307	495.793	2210.51	-55315.2	1	55359.3	-87.7116	3.80494E-010	-2.09924	6
	52	312	495.793	2167.8	-55348	1	55390.4	-87.7571	4.57987E-010	-2.1992	6
	53	317	495.793	2121.54	-55349.3	1	55390	-87.8049	3.78149E-010	-2.29919	6
	54	323	495.793	2111.68	-55344.3	1	55384.6	-87.8149	3.46887E-010	-2.39911	6
	55	328	495.793	2135.51	-55299.6	1	55340.8	-87.7885	4.11155E-010	-2.49908	6
	56	333	495.793	2207.55	-55181.7	1	55225.9	-87.7091	3.6446E-010	-2.59903	6
	57	338	495.793	2274.61	-54978.4	1	55025.4	-87.6309	3.84713E-010	-2.69901	6
	58	344	495.793	2306.82	-54747.4	1	54796	-87.5872	3.05867E-010	-2.79898	6
	59	349	495.793	2305.05	-54526.6	1	54575.3	-87.5793	3.13852E-010	-2.89888	6
	60	354	495.793	2291.39	-54345.5	1	54393.8	-87.5856	2.90014E-010	-2.99886	6