Folder: Scientific_Analysis_MN/OriginPro/EIS (part 6)

File: C0_MS_pH7_04aa.DTA
EXPLAIN
TAG	MOTTSCHOTTKY
TITLE	LABEL	Mott-Schottky	Test &Identifier
DATE	LABEL	29-10-2009	Date
TIME	LABEL	21:13:29	Time
NOTES	NOTES	2	&Notes...
	Si/SiO2
	T=25.3oC
PSTAT	PSTAT	REF600-07089	Potentiostat
VINIT	POTEN	-3.00000E+000	F	Initial &Voltage (V)
VFINAL	POTEN	3.00000E+000	F	Final &Voltage (V)
VSTEP	QUANT	1.00000E-001	&Voltage Step (V)
FREQINIT	QUANT	5.00000E+002	Fre&quency (Hz)
VAC	QUANT	1.00000E+001	AC &Voltage (mV rms)
AREA	QUANT	1.00000E-002	&Area (cm^2)
CONDIT	TWOPARAM	T	2.00000E+001	-3.00000E+000	Conditionin&g	Time(s)	E(V)
DELAY	TWOPARAM	T	2.50000E-001	0.00000E+000	Init. De&lay	Time(s)	Stab.(mV/s)
SPEED	SELECTOR	1	&Optimize for:
ZGUESS	QUANT	1.00000E+002	E&stimated Z (ohms)
OCVCURVE	TABLE	1
	Pt	T	Vf	Vm	Ach	Over
	#	s	V vs. Ref.	V	V	bits
	0	0.258333	-2.05276E+000	0.00000E+000	1.25131E-004	.............
EOC	QUANT	-2.05276	Open Circuit (V)
PSTATMODEL	IQUANT	4	Pstat Model
PSTATSECTION	LABEL	REF600-07089	Pstat Section
PSTATSERIALNO	LABEL	07089	Pstat Serial Number
CTRLMODE	IQUANT	1	Control Mode
IESTAB	IQUANT	0	I/E Stability
CASPEED	IQUANT	2	Control Amp Speed
CONVENTION	IQUANT	1	Current Convention
ICHRANGE	IQUANT	2	Ich Range
ICHRANGEMODE	TOGGLE	F	Ich Auto Range
ICHOFFSETENABLE	TOGGLE	T	Ich Offset Enable
ICHOFFSET	QUANT	0	Ich Offset (V)
ICHFILTER	IQUANT	3	Ich Filter
VCHRANGE	IQUANT	2	Vch Range
VCHRANGEMODE	TOGGLE	F	Vch Auto Range
VCHOFFSETENABLE	TOGGLE	T	Vch Offset Enable
VCHOFFSET	QUANT	0	Vch Offset (V)
VCHFILTER	IQUANT	3	Vch Filter
ACHRANGE	IQUANT	2	Ach Range
ACHOFFSETENABLE	TOGGLE	F	Ach Offset Enable
ACHOFFSET	QUANT	0	Ach Offset (V)
ACHFILTER	IQUANT	2	Ach Filter
IERANGELOWERLIMIT	IQUANT	1	I/E Range Lower Limit
IERANGEMODE	TOGGLE	F	I/E AutoRange
IERANGE	IQUANT	10	I/E Range
POSFEEDENABLE	TOGGLE	F	Positive Feedback IR Comp
POSFEEDRESISTANCE	QUANT	0	Positive Feedback Resistance (ohm)
ACHSELECT	IQUANT	0	Ach Select
CABLEID	IQUANT	14	Cable ID
DCCALDATE	LABEL	14-4-2009	DC Calibration Date
ACCALDATE	LABEL	14-4-2009	AC Calibration Date
THERMOSELECT	IQUANT	0	Thermo Select
FRAMEWORKVERSION	QUANT	5.5	Framework Version
INSTRUMENTVERSION	LABEL	2.00	Instrument Version
ZCURVE	TABLE
	Pt	Time	Freq	Zreal	Zimag	Zsig	Zmod	Zphz	Idc	Vdc	IERange
	#	s	Hz	ohm	ohm	V	ohm	°	A	V	#
	0	10	495.793	2095.62	-58062.1	1	58099.9	-87.9329	9.97087E-010	-2.99891	6
	1	15	495.793	2379.8	-56208.9	1	56259.3	-87.5756	8.08228E-010	-2.89893	6
	2	24	495.793	2444.53	-55185	1	55239.1	-87.4636	8.55469E-010	-2.79901	6
	3	29	495.793	2482.84	-54923.8	1	54979.9	-87.4117	7.29921E-010	-2.69903	6
	4	35	495.793	2531.41	-54866.3	1	54924.7	-87.3584	6.22743E-010	-2.59906	6
	5	40	495.793	2590.17	-54860.2	1	54921.3	-87.2969	5.70337E-010	-2.49911	6
	6	46	495.793	2654.98	-54880.2	1	54944.4	-87.2303	4.95861E-010	-2.39914	6
	7	51	495.793	2742.94	-54977	1	55045.4	-87.1437	5.03533E-010	-2.29921	6
	8	57	495.793	2821.83	-55160.3	1	55232.5	-87.0715	5.04315E-010	-2.19922	6
	9	62	495.793	2908.41	-55414.7	1	55491	-86.9956	4.71538E-010	-2.09926	6
	10	68	495.793	2962.47	-55767.9	1	55846.5	-86.9592	5.22802E-010	-1.99927	6
	11	73	495.793	2939.14	-56191	1	56267.9	-87.0058	5.01423E-010	-1.89933	6
	12	79	495.793	2831.31	-56564.5	1	56635.3	-87.1345	4.22953E-010	-1.79934	6
	13	84	495.793	2685.04	-56735	1	56798.5	-87.2904	4.17108E-010	-1.6994	6
	14	90	495.793	2527.66	-56692.8	1	56749.1	-87.4471	4.39111E-010	-1.59944	6
	15	95	495.793	2367.4	-56449.6	1	56499.2	-87.5985	4.78599E-010	-1.49952	6
	16	101	495.793	2256.8	-56058.1	1	56103.5	-87.6946	4.33196E-010	-1.39956	6
	17	107	495.793	2200.46	-55570.6	1	55614.2	-87.7324	5.10613E-010	-1.29959	6
	18	112	495.793	2192.7	-55040.1	1	55083.8	-87.7187	4.01263E-010	-1.19965	6
	19	118	495.793	2184.84	-54466.2	1	54510	-87.7029	3.81051E-010	-1.0997	6
	20	123	495.793	2186.25	-53884.3	1	53928.6	-87.6766	4.07857E-010	-0.99965	6
	21	129	495.793	2193.32	-53260.7	1	53305.8	-87.6418	3.83886E-010	-0.899683	6
	22	134	495.793	2224.48	-52618.5	1	52665.5	-87.5792	3.97246E-010	-0.799707	6
	23	140	495.793	2280.34	-51922.9	1	51973	-87.4853	3.74347E-010	-0.699781	6
	24	145	495.793	2387.86	-51129.5	1	51185.2	-87.3261	4.14202E-010	-0.599796	6
	25	151	495.793	2485.77	-50198.3	1	50259.8	-87.1651	3.96433E-010	-0.499855	6
	26	157	495.793	2503.62	-49173.2	1	49236.9	-87.0853	4.51292E-010	-0.399884	6
	27	162	495.793	2422.97	-48163.5	1	48224.4	-87.12	5.42977E-009	-0.29994	7
	28	168	495.793	2275.18	-47287.4	1	47342.1	-87.2454	5.11386E-009	-0.199973	7
	29	174	495.793	2154.44	-46553	1	46602.9	-87.3503	5.8103E-009	-0.100035	7
	30	180	495.793	2080.74	-45863.3	1	45910.5	-87.4024	4.83274E-009	0.000204	7
	31	185	495.793	2025.58	-45216.6	1	45261.9	-87.435	5.10515E-009	0.100182	7
	32	191	495.793	2000.63	-44583.9	1	44628.7	-87.4307	4.88133E-009	0.200099	7
	33	196	495.793	1981.56	-43952.8	1	43997.4	-87.4186	5.21228E-009	0.300078	7
	34	202	495.793	1969.34	-43313.4	1	43358.1	-87.3967	5.5249E-009	0.400009	7
	35	207	495.793	1956.16	-42702.8	1	42747.6	-87.3772	5.04891E-009	0.499966	7
	36	212	495.793	1943.8	-42095.9	1	42140.7	-87.3562	5.47326E-009	0.599906	7
	37	218	495.793	1930.31	-41531.8	1	41576.6	-87.3389	4.83066E-009	0.699891	7
	38	223	495.793	1922.69	-40991.1	1	41036.2	-87.3145	4.76811E-009	0.799838	7
	39	229	495.793	1918.34	-40510.8	1	40556.2	-87.2888	5.17705E-009	0.899786	7
	40	235	495.793	1918.55	-40069.2	1	40115.1	-87.2587	5.04426E-009	0.99975	7
	41	241	495.793	1896.01	-39680.4	1	39725.6	-87.2644	5.72463E-009	1.09973	7
	42	247	495.793	1888.72	-39337.6	1	39382.9	-87.2512	5.92581E-009	1.19977	7
	43	253	495.793	1890.56	-39037	1	39082.7	-87.2273	5.66728E-009	1.29971	7
	44	259	495.793	1889.56	-38774.5	1	38820.5	-87.2101	6.41898E-009	1.39966	7
	45	264	495.793	1875.75	-38548.1	1	38593.7	-87.2142	5.72735E-009	1.49964	7
	46	269	495.793	1874.95	-38348.5	1	38394.3	-87.2009	5.36899E-009	1.5996	7
	47	275	495.793	1878.84	-38175.3	1	38221.5	-87.1824	5.20576E-009	1.69948	7
	48	280	495.793	1874.57	-38026.9	1	38073.1	-87.1778	5.49228E-009	1.79938	7
	49	285	495.793	1874.74	-37895.2	1	37941.6	-87.1678	5.67586E-009	1.89938	7
	50	291	495.793	1869.68	-37770.7	1	37817	-87.1661	5.67007E-009	1.99932	7
	51	297	495.793	1865.32	-37667.4	1	37713.5	-87.165	5.73827E-009	2.0993	7
	52	303	495.793	1860.47	-37574.2	1	37620.2	-87.1653	6.19182E-009	2.19926	7
	53	309	495.793	1862.42	-37491.4	1	37537.6	-87.1561	6.24338E-009	2.29925	7
	54	314	495.793	1856.73	-37413.3	1	37459.3	-87.1589	5.61167E-009	2.3992	7
	55	320	495.793	1862.02	-37351.4	1	37397.8	-87.1461	5.85008E-009	2.49917	7
	56	326	495.793	1859.19	-37283.7	1	37330.1	-87.1452	5.22489E-009	2.5991	7
	57	332	495.793	1860.72	-37230.9	1	37277.3	-87.1389	5.7988E-009	2.69908	7
	58	338	495.793	1852.53	-37179.5	1	37225.6	-87.1475	5.50082E-009	2.79903	7
	59	344	495.793	1849.74	-37132.1	1	37178.2	-87.1482	5.68076E-009	2.89898	7
	60	349	495.793	1856.96	-37085.1	1	37131.6	-87.1334	5.75348E-009	2.99892	7

File: C0_MS_pH7_05.DTA
EXPLAIN
TAG	MOTTSCHOTTKY
TITLE	LABEL	Mott-Schottky	Test &Identifier
DATE	LABEL	29-10-2009	Date
TIME	LABEL	21:20:13	Time
NOTES	NOTES	2	&Notes...
	Si/SiO2
	T=25.3oC
PSTAT	PSTAT	REF600-07089	Potentiostat
VINIT	POTEN	3.00000E+000	F	Initial &Voltage (V)
VFINAL	POTEN	-3.00000E+000	F	Final &Voltage (V)
VSTEP	QUANT	1.00000E-001	&Voltage Step (V)
FREQINIT	QUANT	5.00000E+003	Fre&quency (Hz)
VAC	QUANT	1.00000E+001	AC &Voltage (mV rms)
AREA	QUANT	1.00000E-002	&Area (cm^2)
CONDIT	TWOPARAM	T	2.00000E+001	3.00000E+000	Conditionin&g	Time(s)	E(V)
DELAY	TWOPARAM	T	2.50000E-001	0.00000E+000	Init. De&lay	Time(s)	Stab.(mV/s)
SPEED	SELECTOR	1	&Optimize for:
ZGUESS	QUANT	1.00000E+002	E&stimated Z (ohms)
OCVCURVE	TABLE	1
	Pt	T	Vf	Vm	Ach	Over
	#	s	V vs. Ref.	V	V	bits
	0	0.258333	3.67901E+000	0.00000E+000	1.40864E-004	.............
EOC	QUANT	3.67901	Open Circuit (V)
PSTATMODEL	IQUANT	4	Pstat Model
PSTATSECTION	LABEL	REF600-07089	Pstat Section
PSTATSERIALNO	LABEL	07089	Pstat Serial Number
CTRLMODE	IQUANT	1	Control Mode
IESTAB	IQUANT	0	I/E Stability
CASPEED	IQUANT	2	Control Amp Speed
CONVENTION	IQUANT	1	Current Convention
ICHRANGE	IQUANT	2	Ich Range
ICHRANGEMODE	TOGGLE	F	Ich Auto Range
ICHOFFSETENABLE	TOGGLE	T	Ich Offset Enable
ICHOFFSET	QUANT	0	Ich Offset (V)
ICHFILTER	IQUANT	3	Ich Filter
VCHRANGE	IQUANT	2	Vch Range
VCHRANGEMODE	TOGGLE	F	Vch Auto Range
VCHOFFSETENABLE	TOGGLE	T	Vch Offset Enable
VCHOFFSET	QUANT	0	Vch Offset (V)
VCHFILTER	IQUANT	3	Vch Filter
ACHRANGE	IQUANT	2	Ach Range
ACHOFFSETENABLE	TOGGLE	F	Ach Offset Enable
ACHOFFSET	QUANT	0	Ach Offset (V)
ACHFILTER	IQUANT	2	Ach Filter
IERANGELOWERLIMIT	IQUANT	1	I/E Range Lower Limit
IERANGEMODE	TOGGLE	F	I/E AutoRange
IERANGE	IQUANT	10	I/E Range
POSFEEDENABLE	TOGGLE	F	Positive Feedback IR Comp
POSFEEDRESISTANCE	QUANT	0	Positive Feedback Resistance (ohm)
ACHSELECT	IQUANT	0	Ach Select
CABLEID	IQUANT	14	Cable ID
DCCALDATE	LABEL	14-4-2009	DC Calibration Date
ACCALDATE	LABEL	14-4-2009	AC Calibration Date
THERMOSELECT	IQUANT	0	Thermo Select
FRAMEWORKVERSION	QUANT	5.5	Framework Version
INSTRUMENTVERSION	LABEL	2.00	Instrument Version
ZCURVE	TABLE
	Pt	Time	Freq	Zreal	Zimag	Zsig	Zmod	Zphz	Idc	Vdc	IERange
	#	s	Hz	ohm	ohm	V	ohm	°	A	V	#
	0	14	5015.63	953.94	-4062.21	1	4172.72	-76.7845	1.19111E-007	2.99895	8
	1	20	5015.63	952.25	-4055.24	1	4165.54	-76.7852	6.07924E-008	2.89896	8
	2	26	5015.63	955.12	-4063.78	1	4174.52	-76.7737	5.29553E-008	2.799	8
	3	32	5015.63	947.91	-4074.35	1	4183.16	-76.9029	7.86225E-008	2.69909	8
	4	38	5015.63	950.26	-4075.35	1	4184.68	-76.8747	5.5347E-008	2.59908	8
	5	44	5015.63	948.657	-4072.95	1	4181.97	-76.8886	8.35614E-008	2.49918	8
	6	50	5015.63	943.271	-4083.27	1	4190.81	-76.9924	6.0936E-008	2.3992	8
	7	56	5015.63	949.145	-4090.96	1	4199.62	-76.9379	4.96095E-008	2.29922	8
	8	62	5015.63	950.36	-4100.29	1	4208.99	-76.9505	5.18965E-008	2.19924	8
	9	68	5015.63	944.094	-4115.46	1	4222.36	-77.0798	7.36081E-008	2.09931	8
	10	74	5015.63	946.361	-4129.37	1	4236.43	-77.092	6.07913E-008	1.99933	8
	11	80	5015.63	956.53	-4132.97	1	4242.22	-76.969	6.92233E-008	1.89941	8
	12	86	5015.63	951.01	-4144.47	1	4252.18	-77.0764	7.8698E-008	1.7994	8
	13	91	5015.63	952.29	-4162.18	1	4269.73	-77.1128	4.98069E-008	1.69947	8
	14	97	5015.63	954.5	-4181.91	1	4289.46	-77.1428	4.26413E-008	1.59957	8
	15	103	5015.63	957.84	-4204.57	1	4312.29	-77.1664	3.74913E-008	1.49962	8
	16	109	5015.63	953.49	-4215.86	1	4322.34	-77.256	3.59891E-008	1.39963	8
	17	115	5015.63	948.794	-4247.15	1	4351.84	-77.4071	3.86832E-008	1.29968	8
	18	121	5015.63	947.716	-4279.45	1	4383.13	-77.5129	5.47215E-008	1.19976	8
	19	127	5015.63	954.79	-4315.48	1	4419.84	-77.5244	4.38222E-008	1.0997	8
	20	133	5015.63	953.53	-4354.59	1	4457.77	-77.6488	6.07351E-008	0.99974	8
	21	139	5015.63	957.11	-4399.81	1	4502.71	-77.7274	4.61051E-008	0.899769	8
	22	145	5015.63	958.92	-4451.69	1	4553.79	-77.8438	8.2434E-008	0.799869	8
	23	151	5015.63	955.91	-4500.41	1	4600.81	-78.0083	7.27238E-008	0.699899	8
	24	157	5015.63	955.97	-4563.78	1	4662.83	-78.1694	4.26041E-008	0.599887	8
	25	162	5015.63	960.67	-4623.04	1	4721.8	-78.2609	8.66547E-008	0.5	8
	26	168	5015.63	958.98	-4686.33	1	4783.44	-78.435	7.9736E-008	0.400025	8
	27	175	5015.63	971.6	-4753.2	1	4851.49	-78.4473	5.00401E-008	0.300064	8
	28	181	5015.63	972.9	-4818.33	1	4915.57	-78.5845	7.69917E-008	0.200106	8
	29	187	5015.63	972.63	-4889.99	1	4985.78	-78.7505	4.96915E-008	0.100162	8
	30	193	5015.63	989.57	-4962.9	1	5060.6	-78.7235	7.80737E-008	0.000224	8
	31	199	5015.63	1003.14	-5054.5	1	5153.08	-78.7746	6.89376E-009	-0.100036	7
	32	205	5015.63	1014.33	-5151.12	1	5250.03	-78.8602	6.69787E-009	-0.199984	7
	33	210	5015.63	1010.08	-5254.81	1	5351.01	-79.1193	6.03552E-009	-0.299954	7
	34	216	5015.63	1000.17	-5350.8	1	5443.48	-79.4124	1.09136E-008	-0.399885	7
	35	222	5015.63	990.82	-5433.75	1	5523.35	-79.6659	1.22049E-008	-0.499849	7
	36	227	5015.63	987.15	-5507.55	1	5595.32	-79.8384	2.9261E-009	-0.599809	7
	37	233	5015.63	979.16	-5580.99	1	5666.23	-80.049	1.28887E-008	-0.699763	7
	38	239	5015.63	976.04	-5641.65	1	5725.45	-80.1847	2.37622E-010	-0.799716	7
	39	244	5015.63	978.7	-5702.42	1	5785.8	-80.2613	1.21584E-008	-0.899668	7
	40	250	5015.63	973	-5764.47	1	5846.01	-80.4192	2.81108E-009	-0.99965	7
	41	256	5015.63	976.26	-5823.43	1	5904.69	-80.4833	1.00929E-008	-1.09968	7
	42	262	5015.63	976.65	-5887.84	1	5968.3	-80.5818	4.71314E-009	-1.19966	7
	43	267	5015.63	984.24	-5942	1	6022.96	-80.5948	8.58805E-009	-1.29958	7
	44	273	5015.63	980.86	-5990.72	1	6070.48	-80.7015	5.12837E-009	-1.39956	7
	45	279	5015.63	990.58	-6041.99	1	6122.65	-80.6892	6.43415E-009	-1.49952	7
	46	284	5015.63	999.2	-6078.81	1	6160.38	-80.6655	4.21651E-009	-1.59945	7
	47	290	5015.63	1010.94	-6108.17	1	6191.26	-80.6023	1.23658E-008	-1.69937	7
	48	297	5015.63	1022.82	-6121.8	1	6206.66	-80.5147	9.7446E-009	-1.79933	7
	49	302	5015.63	1023.04	-6128.19	1	6213	-80.5224	7.62761E-009	-1.89931	7
	50	308	5015.63	1019.79	-6125.78	1	6210.09	-80.5484	1.25261E-008	-1.99924	7
	51	313	5015.63	1026.35	-6119.44	1	6204.91	-80.479	8.93286E-009	-2.09923	7
	52	318	5015.63	1023.03	-6109.31	1	6194.38	-80.4938	4.99497E-009	-2.19921	7
	53	325	5015.63	1014.47	-6094.16	1	6178.02	-80.5489	1.19357E-008	-2.29917	7
	54	330	5015.63	1018.82	-6093.16	1	6177.75	-80.5075	7.31991E-009	-2.39912	7
	55	335	5015.63	1016.63	-6080.28	1	6164.69	-80.5079	1.01518E-008	-2.49908	7
	56	341	5015.63	1011.07	-6072.71	1	6156.31	-80.5473	7.8149E-009	-2.59905	7
	57	346	5015.63	1017.04	-6071.03	1	6155.63	-80.4899	1.09441E-008	-2.699	7
	58	351	5015.63	1017.36	-6060.17	1	6144.97	-80.4703	6.73371E-010	-2.799	7
	59	357	5015.63	1012.06	-6057.76	1	6141.72	-80.5153	8.35245E-009	-2.89889	7
	60	362	5015.63	1013.56	-6045.23	1	6129.61	-80.4822	2.18272E-009	-2.9989	7

File: C0_MS_pH7_06.DTA
EXPLAIN
TAG	MOTTSCHOTTKY
TITLE	LABEL	Mott-Schottky	Test &Identifier
DATE	LABEL	29-10-2009	Date
TIME	LABEL	21:26:55	Time
NOTES	NOTES	2	&Notes...
	Si/SiO2
	T=25.3oC
PSTAT	PSTAT	REF600-07089	Potentiostat
VINIT	POTEN	3.00000E+000	F	Initial &Voltage (V)
VFINAL	POTEN	-3.00000E+000	F	Final &Voltage (V)
VSTEP	QUANT	1.00000E-001	&Voltage Step (V)
FREQINIT	QUANT	1.00000E+004	Fre&quency (Hz)
VAC	QUANT	1.00000E+001	AC &Voltage (mV rms)
AREA	QUANT	1.00000E-002	&Area (cm^2)
CONDIT	TWOPARAM	T	2.00000E+001	3.00000E+000	Conditionin&g	Time(s)	E(V)
DELAY	TWOPARAM	T	2.50000E-001	0.00000E+000	Init. De&lay	Time(s)	Stab.(mV/s)
SPEED	SELECTOR	1	&Optimize for:
ZGUESS	QUANT	1.00000E+002	E&stimated Z (ohms)
OCVCURVE	TABLE	1
	Pt	T	Vf	Vm	Ach	Over
	#	s	V vs. Ref.	V	V	bits
	0	0.258333	3.66405E+000	0.00000E+000	-3.17435E-004	.............
EOC	QUANT	3.66405	Open Circuit (V)
PSTATMODEL	IQUANT	4	Pstat Model
PSTATSECTION	LABEL	REF600-07089	Pstat Section
PSTATSERIALNO	LABEL	07089	Pstat Serial Number
CTRLMODE	IQUANT	1	Control Mode
IESTAB	IQUANT	0	I/E Stability
CASPEED	IQUANT	2	Control Amp Speed
CONVENTION	IQUANT	1	Current Convention
ICHRANGE	IQUANT	2	Ich Range
ICHRANGEMODE	TOGGLE	F	Ich Auto Range
ICHOFFSETENABLE	TOGGLE	T	Ich Offset Enable
ICHOFFSET	QUANT	0	Ich Offset (V)
ICHFILTER	IQUANT	3	Ich Filter
VCHRANGE	IQUANT	2	Vch Range
VCHRANGEMODE	TOGGLE	F	Vch Auto Range
VCHOFFSETENABLE	TOGGLE	T	Vch Offset Enable
VCHOFFSET	QUANT	0	Vch Offset (V)
VCHFILTER	IQUANT	3	Vch Filter
ACHRANGE	IQUANT	2	Ach Range
ACHOFFSETENABLE	TOGGLE	F	Ach Offset Enable
ACHOFFSET	QUANT	0	Ach Offset (V)
ACHFILTER	IQUANT	1	Ach Filter
IERANGELOWERLIMIT	IQUANT	1	I/E Range Lower Limit
IERANGEMODE	TOGGLE	F	I/E AutoRange
IERANGE	IQUANT	10	I/E Range
POSFEEDENABLE	TOGGLE	F	Positive Feedback IR Comp
POSFEEDRESISTANCE	QUANT	0	Positive Feedback Resistance (ohm)
ACHSELECT	IQUANT	0	Ach Select
CABLEID	IQUANT	14	Cable ID
DCCALDATE	LABEL	14-4-2009	DC Calibration Date
ACCALDATE	LABEL	14-4-2009	AC Calibration Date
THERMOSELECT	IQUANT	0	Thermo Select
FRAMEWORKVERSION	QUANT	5.5	Framework Version
INSTRUMENTVERSION	LABEL	2.00	Instrument Version
ZCURVE	TABLE
	Pt	Time	Freq	Zreal	Zimag	Zsig	Zmod	Zphz	Idc	Vdc	IERange
	#	s	Hz	ohm	ohm	V	ohm	°	A	V	#
	0	10	10078.1	724.605	-2154.62	1	2273.2	-71.4121	9.73979E-008	2.99891	8
	1	16	10078.1	725.372	-2158.36	1	2276.99	-71.4237	1.06154E-007	2.899	8
	2	21	10078.1	726.243	-2158.46	1	2277.37	-71.4038	7.3572E-008	2.79902	8
	3	26	10078.1	725.37	-2161.3	1	2279.77	-71.4473	5.46103E-008	2.69905	8
	4	32	10078.1	726.233	-2164.39	1	2282.98	-71.4515	8.32145E-008	2.59911	8
	5	38	10078.1	726.766	-2170.5	1	2288.94	-71.4875	5.58229E-008	2.49916	8
	6	45	10078.1	727.313	-2170.52	1	2289.14	-71.4747	6.42255E-008	2.39918	8
	7	50	10078.1	726.741	-2175.53	1	2293.71	-71.528	6.31005E-008	2.29923	8
	8	56	10078.1	725.527	-2181.87	1	2299.34	-71.6068	9.51994E-008	2.19928	8
	9	62	10078.1	725.931	-2185.22	1	2302.64	-71.6235	7.74284E-008	2.0993	8
	10	68	10078.1	725.813	-2189.74	1	2306.9	-71.6617	6.32911E-008	1.99931	8
	11	73	10078.1	726.93	-2198.11	1	2315.2	-71.7006	4.66514E-008	1.89936	8
	12	79	10078.1	727.643	-2203.05	1	2320.11	-71.7222	5.9984E-008	1.79935	8
	13	85	10078.1	725.502	-2212.21	1	2328.14	-71.8429	5.48619E-008	1.69945	8
	14	91	10078.1	726.715	-2218.68	1	2334.66	-71.8641	7.00538E-008	1.59959	8
	15	96	10078.1	729.839	-2228.08	1	2344.57	-71.8631	4.62873E-008	1.49961	8
	16	102	10078.1	726.677	-2241.46	1	2356.31	-72.0374	8.11926E-008	1.39967	8
	17	108	10078.1	728.367	-2252.76	1	2367.58	-72.0828	7.83315E-008	1.29972	8
	18	116	10078.1	727.804	-2267.95	1	2381.87	-72.2081	5.40652E-008	1.19974	8
	19	122	10078.1	727.888	-2285.77	1	2398.87	-72.3363	6.5036E-008	1.0997	8
	20	128	10078.1	727.409	-2304.58	1	2416.65	-72.4824	5.47129E-008	0.99974	8
	21	134	10078.1	729.057	-2328.19	1	2439.67	-72.6124	4.96038E-008	0.89976	8
	22	139	10078.1	730.062	-2352.7	1	2463.37	-72.7605	4.70877E-008	0.799819	8
	23	145	10078.1	730.866	-2380.44	1	2490.11	-72.9319	6.98613E-008	0.699905	8
	24	151	10078.1	728.61	-2410.99	1	2518.68	-73.185	7.32665E-008	0.59992	8
	25	157	10078.1	732.7	-2438.26	1	2545.97	-73.2744	5.71684E-008	0.499964	8
	26	163	10078.1	733.655	-2469.46	1	2576.14	-73.4538	6.26668E-008	0.400026	8
	27	169	10078.1	736.703	-2502.99	1	2609.16	-73.5993	4.06406E-008	0.300058	8
	28	175	10078.1	736.451	-2535.2	1	2640	-73.8019	6.02591E-008	0.200089	8
	29	181	10078.1	743.341	-2571.9	1	2677.16	-73.8794	6.87739E-008	0.100174	8
	30	186	10078.1	749.112	-2612.25	1	2717.54	-73.9987	8.38231E-008	0.000228	8
	31	192	10078.1	758.163	-2661.65	1	2767.53	-74.1006	5.52392E-008	-0.100042	8
	32	198	10078.1	757.776	-2710.57	1	2814.5	-74.3809	5.8446E-008	-0.199981	8
	33	204	10078.1	753.7	-2760.79	1	2861.82	-74.7302	4.70985E-008	-0.299964	8
	34	210	10078.1	742.852	-2807.03	1	2903.66	-75.177	7.95511E-008	-0.39986	8
	35	216	10078.1	740.408	-2843.66	1	2938.47	-75.4058	5.33889E-008	-0.499879	8
	36	222	10078.1	739.241	-2880.8	1	2974.13	-75.6079	4.87404E-008	-0.599811	8
	37	228	10078.1	735.009	-2914.22	1	3005.48	-75.8444	9.30584E-008	-0.699749	8
	38	234	10078.1	740.458	-2944.58	1	3036.26	-75.8848	5.63477E-008	-0.799719	8
	39	239	10078.1	740.757	-2974.29	1	3065.15	-76.0148	4.02898E-008	-0.899707	8
	40	245	10078.1	738.317	-3007.19	1	3096.5	-76.2057	6.4738E-008	-0.99965	8
	41	251	10078.1	735.374	-3038.47	1	3126.19	-76.3948	6.2292E-008	-1.0997	8
	42	257	10078.1	738.348	-3068.58	1	3156.16	-76.4709	8.19405E-008	-1.19963	8
	43	262	10078.1	737.915	-3096.24	1	3182.96	-76.595	7.92662E-008	-1.29957	8
	44	268	10078.1	739.211	-3120.29	1	3206.66	-76.6721	5.56201E-008	-1.39958	8
	45	274	10078.1	741.956	-3145.42	1	3231.74	-76.7274	6.6078E-008	-1.49951	8
	46	280	10078.1	741.648	-3166.09	1	3251.79	-76.8163	4.98186E-008	-1.59946	8
	47	286	10078.1	748.529	-3184.39	1	3271.19	-76.7721	6.17754E-008	-1.69938	8
	48	292	10078.1	749.652	-3197.17	1	3283.88	-76.804	6.69743E-008	-1.79931	8
	49	298	10078.1	761.206	-3205.63	1	3294.77	-76.642	6.26675E-008	-1.89931	8
	50	303	10078.1	769.589	-3202.34	1	3293.51	-76.4869	4.48284E-008	-1.99927	8
	51	309	10078.1	772.307	-3195.98	1	3287.97	-76.4149	7.89524E-008	-2.09922	8
	52	315	10078.1	771.568	-3185.76	1	3277.86	-76.3855	4.26418E-008	-2.19922	8
	53	321	10078.1	771.427	-3183.49	1	3275.63	-76.3786	7.06815E-008	-2.29918	8
	54	327	10078.1	769.667	-3177.34	1	3269.23	-76.3832	4.96257E-008	-2.39913	8
	55	332	10078.1	770.651	-3174.51	1	3266.71	-76.3547	5.71297E-008	-2.4991	8
	56	338	10078.1	768.458	-3167.73	1	3259.61	-76.3641	5.38706E-008	-2.59906	8
	57	344	10078.1	768.648	-3163.86	1	3255.89	-76.3447	5.42272E-008	-2.69903	8
	58	350	10078.1	775.455	-3159.89	1	3253.65	-76.2118	5.38923E-008	-2.799	8
	59	355	10078.1	772.518	-3158.72	1	3251.82	-76.2571	7.43589E-008	-2.89889	8
	60	361	10078.1	772.335	-3148.85	1	3242.18	-76.2188	7.87963E-008	-2.99886	8