Folder: Scientific_Analysis_MN/OriginPro/EIS (part 3)

File: C0_MS_pH4_04aa.DTA
EXPLAIN
TAG	MOTTSCHOTTKY
TITLE	LABEL	Mott-Schottky	Test &Identifier
DATE	LABEL	29-10-2009	Date
TIME	LABEL	22:31:49	Time
NOTES	NOTES	2	&Notes...
	Si/SiO2
	T=25.3oC
PSTAT	PSTAT	REF600-07089	Potentiostat
VINIT	POTEN	-3.00000E+000	F	Initial &Voltage (V)
VFINAL	POTEN	3.00000E+000	F	Final &Voltage (V)
VSTEP	QUANT	1.00000E-001	&Voltage Step (V)
FREQINIT	QUANT	5.00000E+002	Fre&quency (Hz)
VAC	QUANT	1.00000E+001	AC &Voltage (mV rms)
AREA	QUANT	1.00000E-002	&Area (cm^2)
CONDIT	TWOPARAM	T	2.00000E+001	-3.00000E+000	Conditionin&g	Time(s)	E(V)
DELAY	TWOPARAM	T	2.50000E-001	0.00000E+000	Init. De&lay	Time(s)	Stab.(mV/s)
SPEED	SELECTOR	1	&Optimize for:
ZGUESS	QUANT	1.00000E+002	E&stimated Z (ohms)
OCVCURVE	TABLE	1
	Pt	T	Vf	Vm	Ach	Over
	#	s	V vs. Ref.	V	V	bits
	0	0.258333	-2.04621E+000	0.00000E+000	2.07829E-004	.............
EOC	QUANT	-2.04621	Open Circuit (V)
PSTATMODEL	IQUANT	4	Pstat Model
PSTATSECTION	LABEL	REF600-07089	Pstat Section
PSTATSERIALNO	LABEL	07089	Pstat Serial Number
CTRLMODE	IQUANT	1	Control Mode
IESTAB	IQUANT	0	I/E Stability
CASPEED	IQUANT	2	Control Amp Speed
CONVENTION	IQUANT	1	Current Convention
ICHRANGE	IQUANT	2	Ich Range
ICHRANGEMODE	TOGGLE	F	Ich Auto Range
ICHOFFSETENABLE	TOGGLE	T	Ich Offset Enable
ICHOFFSET	QUANT	0	Ich Offset (V)
ICHFILTER	IQUANT	3	Ich Filter
VCHRANGE	IQUANT	2	Vch Range
VCHRANGEMODE	TOGGLE	F	Vch Auto Range
VCHOFFSETENABLE	TOGGLE	T	Vch Offset Enable
VCHOFFSET	QUANT	0	Vch Offset (V)
VCHFILTER	IQUANT	3	Vch Filter
ACHRANGE	IQUANT	2	Ach Range
ACHOFFSETENABLE	TOGGLE	F	Ach Offset Enable
ACHOFFSET	QUANT	0	Ach Offset (V)
ACHFILTER	IQUANT	2	Ach Filter
IERANGELOWERLIMIT	IQUANT	1	I/E Range Lower Limit
IERANGEMODE	TOGGLE	F	I/E AutoRange
IERANGE	IQUANT	10	I/E Range
POSFEEDENABLE	TOGGLE	F	Positive Feedback IR Comp
POSFEEDRESISTANCE	QUANT	0	Positive Feedback Resistance (ohm)
ACHSELECT	IQUANT	0	Ach Select
CABLEID	IQUANT	14	Cable ID
DCCALDATE	LABEL	14-4-2009	DC Calibration Date
ACCALDATE	LABEL	14-4-2009	AC Calibration Date
THERMOSELECT	IQUANT	0	Thermo Select
FRAMEWORKVERSION	QUANT	5.5	Framework Version
INSTRUMENTVERSION	LABEL	2.00	Instrument Version
ZCURVE	TABLE
	Pt	Time	Freq	Zreal	Zimag	Zsig	Zmod	Zphz	Idc	Vdc	IERange
	#	s	Hz	ohm	ohm	V	ohm	°	A	V	#
	0	10	495.793	1986.04	-57769.1	1	57803.2	-88.031	9.05138E-010	-2.9989	6
	1	15	495.793	1971.57	-56065.4	1	56100	-87.986	7.61371E-010	-2.89891	6
	2	24	495.793	1988.83	-55266.6	1	55302.4	-87.939	7.24725E-010	-2.79899	6
	3	29	495.793	2037.89	-55073.8	1	55111.5	-87.8809	6.65529E-010	-2.69901	6
	4	35	495.793	2096.21	-55054.8	1	55094.7	-87.8195	5.78549E-010	-2.59904	6
	5	40	495.793	2162.7	-55070.3	1	55112.8	-87.7511	4.98884E-010	-2.49908	6
	6	45	495.793	2239.04	-55138.1	1	55183.5	-87.6746	4.90758E-010	-2.39912	6
	7	51	495.793	2330.16	-55270.1	1	55319.2	-87.5859	3.90831E-010	-2.29919	6
	8	56	495.793	2425.83	-55462.8	1	55515.8	-87.4956	4.20959E-010	-2.19919	6
	9	61	495.793	2533.04	-55758.8	1	55816.3	-87.3989	4.08834E-010	-2.09923	6
	10	66	495.793	2611.79	-56208.8	1	56269.4	-87.3396	4.10514E-010	-1.99925	6
	11	72	495.793	2631.29	-56855.1	1	56916	-87.3502	4.1567E-010	-1.8993	6
	12	77	495.793	2517.45	-57515.3	1	57570.4	-87.4938	4.04865E-010	-1.79931	6
	13	83	495.793	2280.46	-58011.4	1	58056.2	-87.7488	3.86658E-010	-1.69937	6
	14	88	495.793	2030.99	-58185	1	58220.4	-88.0009	3.55139E-010	-1.59943	6
	15	94	495.793	1790.98	-58044	1	58071.7	-88.2327	3.59695E-010	-1.49951	6
	16	100	495.793	1649.98	-57685.7	1	57709.3	-88.3616	3.70367E-010	-1.39954	6
	17	105	495.793	1593.82	-57240.4	1	57262.6	-88.405	4.33133E-010	-1.29957	6
	18	111	495.793	1577.06	-56735.8	1	56757.7	-88.4078	4.25522E-010	-1.19963	6
	19	116	495.793	1568.21	-56189.2	1	56211.1	-88.4013	4.0531E-010	-1.09968	6
	20	122	495.793	1564.31	-55594.8	1	55616.8	-88.3883	4.21585E-010	-0.99963	6
	21	128	495.793	1567.77	-54984.7	1	55007	-88.3668	4.14287E-010	-0.899675	6
	22	133	495.793	1586.07	-54346.5	1	54369.6	-88.3283	4.55987E-010	-0.799688	6
	23	139	495.793	1618.42	-53673.9	1	53698.3	-88.2729	4.3476E-010	-0.69976	6
	24	144	495.793	1701.16	-52943.4	1	52970.7	-88.1596	4.36032E-010	-0.599778	6
	25	150	495.793	1819.46	-52098.3	1	52130.1	-87.9998	4.16498E-010	-0.499847	6
	26	156	495.793	1919.76	-51124	1	51160	-87.8495	3.45801E-010	-0.39987	6
	27	161	495.793	1917.54	-50062.8	1	50099.5	-87.8065	4.49643E-010	-0.299932	6
	28	167	495.793	1822.01	-49056.1	1	49089.9	-87.8729	4.72335E-010	-0.199961	6
	29	172	495.793	1684.72	-48171.1	1	48200.5	-87.997	5.40511E-009	-0.100018	7
	30	178	495.793	1578.85	-47412.8	1	47439.1	-88.0928	5.05139E-009	0.000226	7
	31	184	495.793	1508.43	-46724	1	46748.4	-88.1509	4.38144E-009	0.100189	7
	32	190	495.793	1472.73	-46058.7	1	46082.3	-88.1686	4.541E-009	0.20011	7
	33	195	495.793	1453.84	-45413.3	1	45436.6	-88.1664	3.84996E-009	0.300086	7
	34	200	495.793	1427.03	-44768.3	1	44791.1	-88.1743	4.46353E-009	0.400031	7
	35	206	495.793	1435.38	-44120.2	1	44143.6	-88.1366	3.80968E-009	0.499974	7
	36	211	495.793	1426.99	-43484.9	1	43508.3	-88.1205	4.2034E-009	0.599919	7
	37	217	495.793	1417.27	-42875.6	1	42899.1	-88.1068	3.92748E-009	0.699888	7
	38	222	495.793	1413.29	-42293.3	1	42316.9	-88.0861	4.32323E-009	0.79985	7
	39	228	495.793	1409.58	-41756.6	1	41780.4	-88.0666	4.07553E-009	0.899792	7
	40	234	495.793	1400.03	-41254.8	1	41278.6	-88.0564	4.23673E-009	0.99975	7
	41	239	495.793	1394.44	-40819.6	1	40843.4	-88.0435	5.11306E-009	1.09972	7
	42	244	495.793	1392.06	-40424.1	1	40448.1	-88.0277	5.04393E-009	1.19976	7
	43	250	495.793	1387.94	-40080.1	1	40104.1	-88.0167	4.46532E-009	1.29969	7
	44	255	495.793	1385.51	-39776.4	1	39800.6	-88.0051	4.41765E-009	1.39966	7
	45	260	495.793	1386.93	-39519	1	39543.3	-87.99	4.47567E-009	1.49963	7
	46	266	495.793	1381.53	-39296.8	1	39321.1	-87.9865	4.59687E-009	1.59958	7
	47	271	495.793	1375.68	-39094.4	1	39118.6	-87.9847	5.11794E-009	1.69947	7
	48	277	495.793	1377.41	-38918.9	1	38943.3	-87.973	4.57485E-009	1.79937	7
	49	283	495.793	1371.03	-38762.3	1	38786.5	-87.9743	4.6769E-009	1.89938	7
	50	288	495.793	1379.32	-38633.4	1	38658	-87.9553	4.2538E-009	1.99932	7
	51	294	495.793	1369.53	-38519	1	38543.3	-87.9637	4.472E-009	2.09929	7
	52	299	495.793	1372.52	-38403.5	1	38428	-87.9531	4.74533E-009	2.19924	7
	53	304	495.793	1370.45	-38315.1	1	38339.6	-87.9515	4.74099E-009	2.29924	7
	54	310	495.793	1373.82	-38230.3	1	38255	-87.9419	4.88723E-009	2.39919	7
	55	316	495.793	1364.88	-38153.6	1	38178	-87.9512	4.89963E-009	2.49914	7
	56	321	495.793	1368.75	-38084.9	1	38109.5	-87.9417	5.53473E-009	2.59908	7
	57	326	495.793	1363.69	-38026	1	38050.5	-87.9461	5.35959E-009	2.69907	7
	58	332	495.793	1362.46	-37964.4	1	37988.9	-87.9447	5.34314E-009	2.79902	7
	59	338	495.793	1370.65	-37916.9	1	37941.7	-87.9297	5.59891E-009	2.89896	7
	60	344	495.793	1371.96	-37869.1	1	37894	-87.9251	5.56343E-009	2.9989	7

File: C0_MS_pH4_05.DTA
EXPLAIN
TAG	MOTTSCHOTTKY
TITLE	LABEL	Mott-Schottky	Test &Identifier
DATE	LABEL	29-10-2009	Date
TIME	LABEL	22:38:34	Time
NOTES	NOTES	2	&Notes...
	Si/SiO2
	T=25.3oC
PSTAT	PSTAT	REF600-07089	Potentiostat
VINIT	POTEN	3.00000E+000	F	Initial &Voltage (V)
VFINAL	POTEN	-3.00000E+000	F	Final &Voltage (V)
VSTEP	QUANT	1.00000E-001	&Voltage Step (V)
FREQINIT	QUANT	5.00000E+003	Fre&quency (Hz)
VAC	QUANT	1.00000E+001	AC &Voltage (mV rms)
AREA	QUANT	1.00000E-002	&Area (cm^2)
CONDIT	TWOPARAM	T	2.00000E+001	3.00000E+000	Conditionin&g	Time(s)	E(V)
DELAY	TWOPARAM	T	2.50000E-001	0.00000E+000	Init. De&lay	Time(s)	Stab.(mV/s)
SPEED	SELECTOR	1	&Optimize for:
ZGUESS	QUANT	1.00000E+002	E&stimated Z (ohms)
OCVCURVE	TABLE	1
	Pt	T	Vf	Vm	Ach	Over
	#	s	V vs. Ref.	V	V	bits
	0	0.258333	3.67167E+000	0.00000E+000	1.32197E-004	.............
EOC	QUANT	3.67167	Open Circuit (V)
PSTATMODEL	IQUANT	4	Pstat Model
PSTATSECTION	LABEL	REF600-07089	Pstat Section
PSTATSERIALNO	LABEL	07089	Pstat Serial Number
CTRLMODE	IQUANT	1	Control Mode
IESTAB	IQUANT	0	I/E Stability
CASPEED	IQUANT	2	Control Amp Speed
CONVENTION	IQUANT	1	Current Convention
ICHRANGE	IQUANT	2	Ich Range
ICHRANGEMODE	TOGGLE	F	Ich Auto Range
ICHOFFSETENABLE	TOGGLE	T	Ich Offset Enable
ICHOFFSET	QUANT	0	Ich Offset (V)
ICHFILTER	IQUANT	3	Ich Filter
VCHRANGE	IQUANT	2	Vch Range
VCHRANGEMODE	TOGGLE	F	Vch Auto Range
VCHOFFSETENABLE	TOGGLE	T	Vch Offset Enable
VCHOFFSET	QUANT	0	Vch Offset (V)
VCHFILTER	IQUANT	3	Vch Filter
ACHRANGE	IQUANT	2	Ach Range
ACHOFFSETENABLE	TOGGLE	F	Ach Offset Enable
ACHOFFSET	QUANT	0	Ach Offset (V)
ACHFILTER	IQUANT	2	Ach Filter
IERANGELOWERLIMIT	IQUANT	1	I/E Range Lower Limit
IERANGEMODE	TOGGLE	F	I/E AutoRange
IERANGE	IQUANT	10	I/E Range
POSFEEDENABLE	TOGGLE	F	Positive Feedback IR Comp
POSFEEDRESISTANCE	QUANT	0	Positive Feedback Resistance (ohm)
ACHSELECT	IQUANT	0	Ach Select
CABLEID	IQUANT	14	Cable ID
DCCALDATE	LABEL	14-4-2009	DC Calibration Date
ACCALDATE	LABEL	14-4-2009	AC Calibration Date
THERMOSELECT	IQUANT	0	Thermo Select
FRAMEWORKVERSION	QUANT	5.5	Framework Version
INSTRUMENTVERSION	LABEL	2.00	Instrument Version
ZCURVE	TABLE
	Pt	Time	Freq	Zreal	Zimag	Zsig	Zmod	Zphz	Idc	Vdc	IERange
	#	s	Hz	ohm	ohm	V	ohm	°	A	V	#
	0	13	5015.63	840.138	-4077.47	1	4163.13	-78.3575	1.07968E-007	2.99892	8
	1	19	5015.63	833.437	-4082.99	1	4167.18	-78.463	7.22962E-008	2.89894	8
	2	25	5015.63	838.375	-4081.34	1	4166.56	-78.392	7.58761E-008	2.79901	8
	3	31	5015.63	838.995	-4094.13	1	4179.21	-78.4189	7.28703E-008	2.69906	8
	4	37	5015.63	835.295	-4095.59	1	4179.91	-78.4726	5.85946E-008	2.59908	8
	5	43	5015.63	834.029	-4102.91	1	4186.82	-78.5096	5.42787E-008	2.49914	8
	6	49	5015.63	844.684	-4111.65	1	4197.52	-78.3909	6.52206E-008	2.39918	8
	7	55	5015.63	841.027	-4115.24	1	4200.3	-78.4496	4.34542E-008	2.29921	8
	8	61	5015.63	831.981	-4130.95	1	4213.9	-78.6129	6.72091E-008	2.19924	8
	9	67	5015.63	837.535	-4147.26	1	4230.99	-78.5827	5.73192E-008	2.09928	8
	10	73	5015.63	837.297	-4150.77	1	4234.38	-78.5953	6.7225E-008	1.99931	8
	11	79	5015.63	836.562	-4162.77	1	4245.99	-78.637	6.86666E-008	1.89937	8
	12	85	5015.63	841.801	-4176.68	1	4260.67	-78.6048	5.76851E-008	1.79936	8
	13	91	5015.63	847.542	-4198.03	1	4282.73	-78.586	3.70618E-008	1.69943	8
	14	97	5015.63	834.386	-4218.88	1	4300.6	-78.8128	6.58268E-008	1.59959	8
	15	103	5015.63	837.612	-4237.22	1	4319.21	-78.8179	6.27692E-008	1.49963	8
	16	108	5015.63	835.325	-4269.46	1	4350.4	-78.9298	3.03284E-008	1.39962	8
	17	114	5015.63	845.728	-4298.1	1	4380.51	-78.8682	6.86059E-008	1.29972	8
	18	120	5015.63	835.638	-4335.21	1	4415.01	-79.0897	3.37216E-008	1.19975	8
	19	126	5015.63	837.753	-4368.2	1	4447.81	-79.1434	5.47592E-008	1.09973	8
	20	132	5015.63	845.89	-4411.16	1	4491.53	-79.1447	3.83158E-008	0.99973	8
	21	138	5015.63	841.384	-4460.2	1	4538.87	-79.3171	5.21086E-008	0.899797	8
	22	144	5015.63	838.353	-4512.82	1	4590.03	-79.4761	4.35659E-008	0.799834	8
	23	150	5015.63	836.53	-4577.95	1	4653.76	-79.6446	2.9105E-008	0.699865	8
	24	156	5015.63	844.462	-4628	1	4704.41	-79.6591	3.14633E-008	0.599877	8
	25	161	5015.63	845.825	-4696.59	1	4772.14	-79.7908	3.97327E-008	0.499956	8
	26	167	5015.63	843.524	-4764.87	1	4838.95	-79.9609	2.7975E-008	0.399995	8
	27	173	5015.63	854.987	-4831.45	1	4906.51	-79.9647	2.73778E-008	0.300065	8
	28	178	5015.63	839.449	-4898.86	1	4970.26	-80.2765	5.35314E-008	0.200095	8
	29	184	5015.63	867.439	-4974.96	1	5050.02	-80.1093	8.42008E-008	0.1002	8
	30	190	5015.63	875.702	-5067.22	1	5142.33	-80.1952	8.95622E-009	0.000211	7
	31	196	5015.63	888.224	-5169.49	1	5245.24	-80.2506	4.23486E-009	-0.100041	7
	32	201	5015.63	882.751	-5269.61	1	5343.03	-80.4903	1.35542E-008	-0.199958	7
	33	207	5015.63	878.81	-5366.71	1	5438.19	-80.7002	1.30533E-008	-0.299934	7
	34	212	5015.63	869.443	-5451.89	1	5520.78	-80.939	1.17981E-008	-0.399873	7
	35	218	5015.63	853.112	-5525.34	1	5590.81	-81.2228	5.99589E-009	-0.499857	7
	36	224	5015.63	848.43	-5593.02	1	5657	-81.3743	5.35503E-009	-0.599797	7
	37	229	5015.63	848.768	-5664.89	1	5728.13	-81.4788	8.37912E-009	-0.699772	7
	38	235	5015.63	849.029	-5727.55	1	5790.14	-81.5681	3.67198E-009	-0.799713	7
	39	241	5015.63	847.616	-5782.73	1	5844.52	-81.6611	9.65929E-009	-0.899667	7
	40	246	5015.63	851.928	-5856.45	1	5918.09	-81.7233	1.2126E-008	-0.99962	7
	41	252	5015.63	843.79	-5911.52	1	5971.44	-81.8767	4.79222E-009	-1.0997	7
	42	258	5015.63	852.592	-5964.08	1	6024.71	-81.8644	6.85773E-009	-1.19964	7
	43	263	5015.63	848.144	-6016.46	1	6075.95	-81.9759	1.02022E-008	-1.29957	7
	44	269	5015.63	856.218	-6063.45	1	6123.61	-81.9624	7.78263E-009	-1.39955	7
	45	274	5015.63	856.953	-6104.23	1	6164.09	-82.0087	2.00637E-009	-1.49952	7
	46	280	5015.63	864.121	-6143.1	1	6203.58	-81.993	1.33518E-009	-1.59944	7
	47	285	5015.63	873.729	-6170.44	1	6232	-81.9406	1.16214E-008	-1.69936	7
	48	291	5015.63	887.714	-6179.03	1	6242.47	-81.8245	1.23735E-008	-1.79931	7
	49	296	5015.63	898.699	-6170.44	1	6235.54	-81.7134	4.28371E-009	-1.8993	7
	50	301	5015.63	897.565	-6156.98	1	6222.06	-81.7058	6.92024E-009	-1.99924	7
	51	307	5015.63	909.095	-6146.87	1	6213.73	-81.5872	2.94649E-010	-2.09924	7
	52	312	5015.63	902.095	-6122.31	1	6188.41	-81.618	1.2216E-008	-2.19917	7
	53	318	5015.63	906.307	-6119.75	1	6186.49	-81.576	9.69601E-009	-2.29916	7
	54	323	5015.63	910.235	-6103.36	1	6170.86	-81.5176	7.04025E-009	-2.3991	7
	55	328	5015.63	899.71	-6102.01	1	6167.99	-81.6125	1.03139E-008	-2.49906	7
	56	334	5015.63	905.612	-6088.94	1	6155.92	-81.5404	1.04917E-008	-2.59902	7
	57	339	5015.63	900.657	-6073.61	1	6140.03	-81.5651	1.03007E-008	-2.69899	7
	58	344	5015.63	904.529	-6059.03	1	6126.17	-81.5092	1.30162E-008	-2.79896	7
	59	349	5015.63	905.8	-6049.81	1	6117.24	-81.4847	1.19282E-009	-2.89889	7
	60	355	5015.63	906.707	-6037.03	1	6104.74	-81.4585	1.64366E-009	-2.99887	7

File: C0_MS_pH4_06.DTA
EXPLAIN
TAG	MOTTSCHOTTKY
TITLE	LABEL	Mott-Schottky	Test &Identifier
DATE	LABEL	29-10-2009	Date
TIME	LABEL	22:45:09	Time
NOTES	NOTES	2	&Notes...
	Si/SiO2
	T=25.3oC
PSTAT	PSTAT	REF600-07089	Potentiostat
VINIT	POTEN	3.00000E+000	F	Initial &Voltage (V)
VFINAL	POTEN	-3.00000E+000	F	Final &Voltage (V)
VSTEP	QUANT	1.00000E-001	&Voltage Step (V)
FREQINIT	QUANT	1.00000E+004	Fre&quency (Hz)
VAC	QUANT	1.00000E+001	AC &Voltage (mV rms)
AREA	QUANT	1.00000E-002	&Area (cm^2)
CONDIT	TWOPARAM	T	2.00000E+001	3.00000E+000	Conditionin&g	Time(s)	E(V)
DELAY	TWOPARAM	T	2.50000E-001	0.00000E+000	Init. De&lay	Time(s)	Stab.(mV/s)
SPEED	SELECTOR	1	&Optimize for:
ZGUESS	QUANT	1.00000E+002	E&stimated Z (ohms)
OCVCURVE	TABLE	1
	Pt	T	Vf	Vm	Ach	Over
	#	s	V vs. Ref.	V	V	bits
	0	0.258333	3.65966E+000	0.00000E+000	2.99856E-004	.............
EOC	QUANT	3.65966	Open Circuit (V)
PSTATMODEL	IQUANT	4	Pstat Model
PSTATSECTION	LABEL	REF600-07089	Pstat Section
PSTATSERIALNO	LABEL	07089	Pstat Serial Number
CTRLMODE	IQUANT	1	Control Mode
IESTAB	IQUANT	0	I/E Stability
CASPEED	IQUANT	2	Control Amp Speed
CONVENTION	IQUANT	1	Current Convention
ICHRANGE	IQUANT	2	Ich Range
ICHRANGEMODE	TOGGLE	F	Ich Auto Range
ICHOFFSETENABLE	TOGGLE	T	Ich Offset Enable
ICHOFFSET	QUANT	0	Ich Offset (V)
ICHFILTER	IQUANT	3	Ich Filter
VCHRANGE	IQUANT	2	Vch Range
VCHRANGEMODE	TOGGLE	F	Vch Auto Range
VCHOFFSETENABLE	TOGGLE	T	Vch Offset Enable
VCHOFFSET	QUANT	0	Vch Offset (V)
VCHFILTER	IQUANT	3	Vch Filter
ACHRANGE	IQUANT	2	Ach Range
ACHOFFSETENABLE	TOGGLE	F	Ach Offset Enable
ACHOFFSET	QUANT	0	Ach Offset (V)
ACHFILTER	IQUANT	1	Ach Filter
IERANGELOWERLIMIT	IQUANT	1	I/E Range Lower Limit
IERANGEMODE	TOGGLE	F	I/E AutoRange
IERANGE	IQUANT	10	I/E Range
POSFEEDENABLE	TOGGLE	F	Positive Feedback IR Comp
POSFEEDRESISTANCE	QUANT	0	Positive Feedback Resistance (ohm)
ACHSELECT	IQUANT	0	Ach Select
CABLEID	IQUANT	14	Cable ID
DCCALDATE	LABEL	14-4-2009	DC Calibration Date
ACCALDATE	LABEL	14-4-2009	AC Calibration Date
THERMOSELECT	IQUANT	0	Thermo Select
FRAMEWORKVERSION	QUANT	5.5	Framework Version
INSTRUMENTVERSION	LABEL	2.00	Instrument Version
ZCURVE	TABLE
	Pt	Time	Freq	Zreal	Zimag	Zsig	Zmod	Zphz	Idc	Vdc	IERange
	#	s	Hz	ohm	ohm	V	ohm	°	A	V	#
	0	10	10078.1	623.054	-2165.86	1	2253.69	-73.951	1.11837E-007	2.99891	8
	1	16	10078.1	621.274	-2167	1	2254.3	-74.0025	8.08425E-008	2.89894	8
	2	21	10078.1	619.943	-2169.4	1	2256.24	-74.0518	9.05992E-008	2.799	8
	3	27	10078.1	619.477	-2173	1	2259.57	-74.0882	6.17911E-008	2.69904	8
	4	32	10078.1	619.912	-2177.38	1	2263.9	-74.108	8.35348E-008	2.59908	8
	5	38	10078.1	619.66	-2179.18	1	2265.56	-74.1266	6.80616E-008	2.49916	8
	6	44	10078.1	619.747	-2181.46	1	2267.78	-74.1403	5.94238E-008	2.39919	8
	7	50	10078.1	621.293	-2186.15	1	2272.72	-74.1351	3.55705E-008	2.2992	8
	8	55	10078.1	620.45	-2192.36	1	2278.47	-74.1982	4.08723E-008	2.19921	8
	9	61	10078.1	616.96	-2196.73	1	2281.72	-74.3124	7.78088E-008	2.0993	8
	10	67	10078.1	622.853	-2205.25	1	2291.53	-74.2282	7.53072E-008	1.99932	8
	11	73	10078.1	620.977	-2209.95	1	2295.54	-74.3051	5.5365E-008	1.89936	8
	12	78	10078.1	620.717	-2216.13	1	2301.41	-74.3529	5.32626E-008	1.79935	8
	13	84	10078.1	621.415	-2226.81	1	2311.89	-74.4077	6.53123E-008	1.69945	8
	14	90	10078.1	621.647	-2234.44	1	2319.3	-74.4528	8.08394E-008	1.5996	8
	15	96	10078.1	620.909	-2250.03	1	2334.13	-74.5728	6.22419E-008	1.49962	8
	16	101	10078.1	621.011	-2260.55	1	2344.3	-74.6388	6.47263E-008	1.39964	8
	17	110	10078.1	619.188	-2276.76	1	2359.45	-74.7858	7.47048E-008	1.29971	8
	18	118	10078.1	619.431	-2289.74	1	2372.04	-74.8624	6.85503E-008	1.19975	8
	19	124	10078.1	622.705	-2311.3	1	2393.72	-74.9215	6.29107E-008	1.0997	8
	20	130	10078.1	620.925	-2333.43	1	2414.63	-75.0989	6.3921E-008	0.99975	8
	21	136	10078.1	620.115	-2356.41	1	2436.64	-75.2563	6.55389E-008	0.899799	8
	22	142	10078.1	621.21	-2384.11	1	2463.72	-75.3956	4.66071E-008	0.799822	8
	23	148	10078.1	622.522	-2413.88	1	2492.86	-75.539	8.15172E-008	0.699913	8
	24	154	10078.1	620.871	-2442.01	1	2519.7	-75.735	3.95642E-008	0.5999	8
	25	160	10078.1	624.494	-2476.3	1	2553.83	-75.8458	3.08392E-008	0.499955	8
	26	165	10078.1	622.942	-2508.11	1	2584.32	-76.0516	6.73115E-008	0.400027	8
	27	171	10078.1	626.95	-2541.33	1	2617.52	-76.1418	4.85453E-008	0.300068	8
	28	177	10078.1	629.571	-2581.35	1	2657.01	-76.2936	5.08061E-008	0.200089	8
	29	182	10078.1	637.824	-2620.22	1	2696.73	-76.3189	5.91223E-008	0.100184	8
	30	188	10078.1	645.065	-2664.11	1	2741.09	-76.3888	7.03407E-008	0.000226	8
	31	194	10078.1	645.218	-2716.4	1	2791.97	-76.6383	4.18676E-008	-0.100047	8
	32	200	10078.1	641.781	-2767.42	1	2840.86	-76.9436	4.13642E-008	-0.199984	8
	33	205	10078.1	637.7	-2811.48	1	2882.9	-77.2204	4.49881E-008	-0.299958	8
	34	211	10078.1	629.558	-2851.99	1	2920.65	-77.552	9.06201E-008	-0.399849	8
	35	216	10078.1	626.99	-2888.37	1	2955.64	-77.7526	5.53794E-008	-0.499848	8
	36	222	10078.1	623.969	-2922.39	1	2988.26	-77.9475	7.02727E-008	-0.599766	8
	37	228	10078.1	625.334	-2953.96	1	3019.42	-78.0473	3.68043E-008	-0.699776	8
	38	233	10078.1	622.094	-2981.24	1	3045.45	-78.2132	5.06195E-008	-0.799706	8
	39	239	10078.1	621.433	-3013.56	1	3076.97	-78.3482	7.85505E-008	-0.899648	8
	40	244	10078.1	623.862	-3044.5	1	3107.76	-78.4196	7.60684E-008	-0.99961	8
	41	250	10078.1	626.728	-3074.24	1	3137.47	-78.4773	3.88662E-008	-1.0997	8
	42	255	10078.1	619.302	-3102.05	1	3163.27	-78.7097	6.25157E-008	-1.19962	8
	43	260	10078.1	630	-3132.93	1	3195.64	-78.63	3.6942E-008	-1.29959	8
	44	266	10078.1	627.949	-3149.35	1	3211.34	-78.7237	4.43729E-008	-1.39957	8
	45	271	10078.1	624.619	-3177.73	1	3238.54	-78.8796	5.33138E-008	-1.49952	8
	46	277	10078.1	626.35	-3195.46	1	3256.26	-78.9099	7.34016E-008	-1.59941	8
	47	282	10078.1	635.911	-3209.32	1	3271.72	-78.7923	7.28062E-008	-1.69936	8
	48	288	10078.1	644.517	-3220.78	1	3284.63	-78.6839	6.30394E-008	-1.79931	8
	49	293	10078.1	651.486	-3221.53	1	3286.74	-78.5673	3.99218E-008	-1.89932	8
	50	299	10078.1	658.288	-3212.44	1	3279.19	-78.4194	5.02932E-008	-1.99925	8
	51	304	10078.1	657.639	-3206.77	1	3273.51	-78.4106	4.72319E-008	-2.09923	8
	52	309	10078.1	661.314	-3200.13	1	3267.74	-78.324	8.9011E-008	-2.19917	8
	53	315	10078.1	662.698	-3195.97	1	3263.96	-78.2855	7.25709E-008	-2.29918	8
	54	321	10078.1	664.872	-3184.9	1	3253.56	-78.2084	5.27161E-008	-2.39913	8
	55	326	10078.1	662.961	-3184.21	1	3252.49	-78.2389	8.81622E-008	-2.49906	8
	56	332	10078.1	671.487	-3175.76	1	3245.97	-78.0611	4.96288E-008	-2.59905	8
	57	337	10078.1	666.414	-3167.33	1	3236.68	-78.1181	3.86037E-008	-2.69902	8
	58	342	10078.1	664.182	-3164.73	1	3233.68	-78.1474	7.56268E-008	-2.79896	8
	59	348	10078.1	665.296	-3161.11	1	3230.36	-78.1148	6.29641E-008	-2.89889	8
	60	353	10078.1	669.868	-3152.66	1	3223.04	-78.0043	8.00655E-008	-2.99885	8