Folder: Scientific_Analysis_MN/OriginPro/EIS (part 4)

File: C0_MS_pH7_01.DTA
EXPLAIN
TAG	MOTTSCHOTTKY
TITLE	LABEL	Mott-Schottky	Test &Identifier
DATE	LABEL	29-10-2009	Date
TIME	LABEL	20:24:38	Time
NOTES	NOTES	2	&Notes...
	Si/SiO2
	T=25.3oC
PSTAT	PSTAT	REF600-07089	Potentiostat
VINIT	POTEN	5.00000E+000	F	Initial &Voltage (V)
VFINAL	POTEN	-5.00000E+000	F	Final &Voltage (V)
VSTEP	QUANT	1.00000E-001	&Voltage Step (V)
FREQINIT	QUANT	1.00000E+003	Fre&quency (Hz)
VAC	QUANT	1.00000E+001	AC &Voltage (mV rms)
AREA	QUANT	1.00000E-002	&Area (cm^2)
CONDIT	TWOPARAM	T	2.00000E+001	5.00000E+000	Conditionin&g	Time(s)	E(V)
DELAY	TWOPARAM	T	2.50000E-001	0.00000E+000	Init. De&lay	Time(s)	Stab.(mV/s)
SPEED	SELECTOR	1	&Optimize for:
ZGUESS	QUANT	1.00000E+002	E&stimated Z (ohms)
OCVCURVE	TABLE	1
	Pt	T	Vf	Vm	Ach	Over
	#	s	V vs. Ref.	V	V	bits
	0	0.258333	5.62074E+000	0.00000E+000	4.72320E-004	.............
EOC	QUANT	5.62074	Open Circuit (V)
PSTATMODEL	IQUANT	4	Pstat Model
PSTATSECTION	LABEL	REF600-07089	Pstat Section
PSTATSERIALNO	LABEL	07089	Pstat Serial Number
CTRLMODE	IQUANT	1	Control Mode
IESTAB	IQUANT	0	I/E Stability
CASPEED	IQUANT	2	Control Amp Speed
CONVENTION	IQUANT	1	Current Convention
ICHRANGE	IQUANT	2	Ich Range
ICHRANGEMODE	TOGGLE	F	Ich Auto Range
ICHOFFSETENABLE	TOGGLE	T	Ich Offset Enable
ICHOFFSET	QUANT	0	Ich Offset (V)
ICHFILTER	IQUANT	3	Ich Filter
VCHRANGE	IQUANT	2	Vch Range
VCHRANGEMODE	TOGGLE	F	Vch Auto Range
VCHOFFSETENABLE	TOGGLE	T	Vch Offset Enable
VCHOFFSET	QUANT	0	Vch Offset (V)
VCHFILTER	IQUANT	3	Vch Filter
ACHRANGE	IQUANT	2	Ach Range
ACHOFFSETENABLE	TOGGLE	F	Ach Offset Enable
ACHOFFSET	QUANT	0	Ach Offset (V)
ACHFILTER	IQUANT	1	Ach Filter
IERANGELOWERLIMIT	IQUANT	1	I/E Range Lower Limit
IERANGEMODE	TOGGLE	F	I/E AutoRange
IERANGE	IQUANT	10	I/E Range
POSFEEDENABLE	TOGGLE	F	Positive Feedback IR Comp
POSFEEDRESISTANCE	QUANT	0	Positive Feedback Resistance (ohm)
ACHSELECT	IQUANT	0	Ach Select
CABLEID	IQUANT	14	Cable ID
DCCALDATE	LABEL	14-4-2009	DC Calibration Date
ACCALDATE	LABEL	14-4-2009	AC Calibration Date
THERMOSELECT	IQUANT	0	Thermo Select
FRAMEWORKVERSION	QUANT	5.5	Framework Version
INSTRUMENTVERSION	LABEL	2.00	Instrument Version
ZCURVE	TABLE
	Pt	Time	Freq	Zreal	Zimag	Zsig	Zmod	Zphz	Idc	Vdc	IERange
	#	s	Hz	ohm	ohm	V	ohm	°	A	V	#
	0	10	998.26	1443.07	-18559.6	1	18615.6	-85.554	1.24447E-008	4.99818	7
	1	15	998.26	1432.96	-18560.4	1	18615.6	-85.5852	2.33861E-008	4.89829	7
	2	21	998.26	1380.15	-18600.3	1	18651.5	-85.7564	1.02431E-008	4.79832	7
	3	26	998.26	1366.3	-18571.8	1	18622	-85.7924	9.61085E-009	4.69833	7
	4	32	998.26	1421.47	-18604.1	1	18658.3	-85.6307	2.07731E-008	4.5984	7
	5	38	998.26	1350.17	-18578	1	18627	-85.8433	8.70856E-009	4.49841	7
	6	45	998.26	1330.23	-18568.3	1	18615.9	-85.9024	2.30004E-008	4.3985	7
	7	51	998.26	1417.08	-18619.9	1	18673.7	-85.6479	1.49767E-008	4.29852	7
	8	57	998.26	1369.23	-18636.9	1	18687.1	-85.7981	2.42128E-008	4.19856	7
	9	63	998.26	1446.31	-18648.4	1	18704.4	-85.5652	1.57888E-008	4.09859	7
	10	70	998.26	1355.53	-18682.2	1	18731.3	-85.85	1.65564E-008	3.99859	7
	11	75	998.26	1427.83	-18633.9	1	18688.5	-85.6183	1.0149E-008	3.89861	7
	12	81	998.26	1424.24	-18637	1	18691.3	-85.63	1.3091E-008	3.79863	7
	13	87	998.26	1313.33	-18656.8	1	18703	-85.9734	1.01023E-008	3.6987	7
	14	92	998.26	1372.01	-18695.1	1	18745.4	-85.8027	9.02136E-009	3.5987	7
	15	98	998.26	1433.06	-18725.5	1	18780.3	-85.6237	1.14981E-008	3.4988	7
	16	103	998.26	1384.33	-18630.3	1	18681.7	-85.7504	7.32017E-009	3.39879	7
	17	109	998.26	1405.67	-18701.4	1	18754.2	-85.7015	1.94403E-008	3.2989	7
	18	115	998.26	1358.66	-18757.9	1	18807	-85.8572	9.56658E-009	3.19884	7
	19	120	998.26	1365.69	-18756.9	1	18806.6	-85.8356	1.5344E-008	3.09889	7
	20	126	998.26	1378.68	-18797.5	1	18848	-85.8052	2.35536E-008	2.99894	7
	21	132	998.26	1341.05	-18734.4	1	18782.3	-85.9056	1.94727E-008	2.89899	7
	22	137	998.26	1364.07	-18862.2	1	18911.4	-85.8637	1.12382E-008	2.79903	7
	23	143	998.26	1426.28	-18882.2	1	18935.9	-85.6803	1.15813E-008	2.69907	7
	24	149	998.26	1450.08	-18925.4	1	18980.9	-85.6185	1.48557E-008	2.59909	7
	25	154	998.26	1464.23	-18879.4	1	18936	-85.5652	2.0235E-008	2.49917	7
	26	160	998.26	1416.42	-18930.9	1	18983.8	-85.7211	1.58232E-008	2.3992	7
	27	166	998.26	1403.62	-18944.7	1	18996.6	-85.7627	1.79763E-008	2.29925	7
	28	171	998.26	1380.36	-19010.6	1	19060.7	-85.8471	1.74406E-008	2.19926	7
	29	177	998.26	1384.9	-19074.6	1	19124.8	-85.8474	2.15023E-008	2.09931	7
	30	185	998.26	1380.77	-19092.2	1	19142.1	-85.8635	2.23077E-008	1.99934	7
	31	193	998.26	1400.12	-19199	1	19250	-85.829	1.91605E-008	1.89939	7
	32	202	998.26	1384.43	-19218	1	19267.8	-85.8797	2.43629E-008	1.79939	7
	33	210	998.26	1452.59	-19329.1	1	19383.6	-85.7023	1.23832E-008	1.69945	7
	34	219	998.26	1397.91	-19364.9	1	19415.3	-85.8711	1.15102E-008	1.59957	7
	35	227	998.26	1431.44	-19486.1	1	19538.6	-85.7986	1.8255E-008	1.49964	7
	36	235	998.26	1391.3	-19692.1	1	19741.2	-85.9586	2.27188E-008	1.39967	7
	37	243	998.26	1393.54	-19777.7	1	19826.8	-85.9696	2.39839E-008	1.29971	7
	38	252	998.26	1419.32	-19899.7	1	19950.3	-85.9204	2.27557E-008	1.19977	7
	39	260	998.26	1403.3	-20206.3	1	20255	-86.0273	1.50408E-008	1.09972	7
	40	271	998.26	1414.47	-20323.2	1	20372.4	-86.0187	2.73335E-008	0.99976	7
	41	279	998.26	1378.25	-20577.7	1	20623.8	-86.1682	2.14069E-008	0.899796	7
	42	290	998.26	1428.98	-20795.7	1	20844.7	-86.0691	1.47416E-008	0.799836	7
	43	304	998.26	1361.9	-21061.2	1	21105.1	-86.3002	1.48938E-008	0.699874	7
	44	318	998.26	1400.78	-21422.6	1	21468.3	-86.2589	2.70833E-008	0.599929	7
	45	333	998.26	1467.93	-21683.6	1	21733.2	-86.1271	2.03755E-008	0.499984	7
	46	347	998.26	1436.52	-21953.4	1	22000.4	-86.2562	1.99371E-008	0.400014	7
	47	361	998.26	1538.39	-22328.4	1	22381.3	-86.0586	1.83641E-008	0.300077	7
	48	366	998.26	1546.64	-22652.8	1	22705.5	-86.0941	1.93534E-008	0.200104	7
	49	372	998.26	1529.52	-22905.8	1	22956.8	-86.1798	1.21983E-008	0.100173	7
	50	378	998.26	1474.72	-23331.9	1	23378.4	-86.3834	1.15416E-008	0.000195	7
	51	383	998.26	1594.26	-23597.1	1	23650.9	-86.1349	1.63974E-008	-0.100033	7
	52	389	998.26	1675.46	-24111.9	1	24170.1	-86.0251	1.09951E-008	-0.199988	7
	53	395	998.26	1715.39	-24603.3	1	24663	-86.0117	1.4397E-008	-0.299951	7
	54	401	998.26	1775.84	-25011.9	1	25074.9	-85.9388	1.23485E-008	-0.399898	7
	55	407	998.26	1663.16	-25677.4	1	25731.2	-86.2941	2.08171E-008	-0.499844	7
	56	413	998.26	1666.33	-25861.8	1	25915.4	-86.3134	1.95494E-008	-0.599779	7
	57	418	998.26	1553.04	-26390.1	1	26435.8	-86.6321	1.69382E-008	-0.69977	7
	58	424	998.26	1507.97	-26731.6	1	26774.1	-86.7713	2.41945E-008	-0.799684	7
	59	430	998.26	1556.23	-27028.3	1	27073.1	-86.7047	1.1229E-008	-0.899688	7
	60	436	998.26	1555.07	-27404.8	1	27448.9	-86.7523	2.14329E-008	-0.99963	7
	61	442	998.26	1469.83	-27619	1	27658.1	-86.9537	2.41736E-008	-1.09969	7
	62	449	998.26	1561.09	-27793.2	1	27837	-86.7852	1.81929E-008	-1.19965	7
	63	455	998.26	1601.42	-28076.5	1	28122.1	-86.7355	1.22532E-008	-1.29959	7
	64	461	998.26	1514.4	-28340.5	1	28381	-86.9413	2.41829E-008	-1.39955	7
	65	467	998.26	1537.58	-28598	1	28639.3	-86.9224	2.4399E-008	-1.4995	7
	66	472	998.26	1629.42	-28761	1	28807.1	-86.7574	1.36054E-008	-1.59945	7
	67	478	998.26	1705.66	-28906.8	1	28957.1	-86.6231	2.30165E-008	-1.69938	7
	68	484	998.26	1530.83	-28884.4	1	28924.9	-86.9662	2.08412E-008	-1.79932	7
	69	490	998.26	1637.27	-28832.8	1	28879.2	-86.7499	1.7759E-008	-1.89932	7
	70	496	998.26	1562.7	-28902.9	1	28945.1	-86.9052	1.22827E-008	-1.99927	7
	71	502	998.26	1507.23	-28846.3	1	28885.7	-87.009	2.2656E-008	-2.09923	7
	72	507	998.26	1659.03	-28793.7	1	28841.5	-86.7024	1.87757E-008	-2.19921	7
	73	513	998.26	1551.89	-28802	1	28843.8	-86.9158	2.31761E-008	-2.29918	7
	74	519	998.26	1433.99	-28901	1	28936.6	-87.1595	1.84229E-008	-2.39911	7
	75	525	998.26	1431.6	-28936.3	1	28971.7	-87.1676	1.98934E-008	-2.49909	7
	76	530	998.26	1500.32	-28808.2	1	28847.2	-87.0188	1.60935E-008	-2.59905	7
	77	536	998.26	1331.6	-28725.5	1	28756.3	-87.3459	2.11707E-008	-2.699	7
	78	541	998.26	1499.7	-28702.1	1	28741.2	-87.009	1.19109E-008	-2.799	7
	79	546	998.26	1471.64	-28863	1	28900.5	-87.0812	1.96173E-008	-2.89891	7
	80	552	998.26	1418.65	-28714.8	1	28749.9	-87.1716	2.3212E-008	-2.99887	7
	81	558	998.26	1488.58	-28630.1	1	28668.8	-87.0237	2.39083E-008	-3.09882	7
	82	563	998.26	1473.53	-28674.2	1	28712.1	-87.0582	1.28057E-008	-3.19887	7
	83	569	998.26	1403.93	-28646.6	1	28681	-87.1943	2.23867E-008	-3.29874	7
	84	575	998.26	1365.41	-28616.3	1	28648.8	-87.2682	1.75097E-008	-3.39871	7
	85	580	998.26	1452.14	-28631.9	1	28668.7	-87.0966	2.36187E-008	-3.49867	7
	86	586	998.26	1555.02	-28495.9	1	28538.3	-86.8765	1.09161E-008	-3.59866	7
	87	592	998.26	1381.99	-28597.3	1	28630.7	-87.2333	2.2388E-008	-3.69857	7
	88	598	998.26	1440.77	-28612.1	1	28648.4	-87.1173	2.20385E-008	-3.79853	7
	89	603	998.26	1429.67	-28407.3	1	28443.2	-87.1189	1.25578E-008	-3.89853	7
	90	609	998.26	1485.86	-28479.2	1	28517.9	-87.0134	1.47051E-008	-3.99848	7
	91	615	998.26	1614.99	-28385.4	1	28431.3	-86.7437	1.34317E-008	-4.09841	7
	92	621	998.26	1482.25	-28402	1	28440.7	-87.0126	1.00933E-008	-4.1984	7
	93	627	998.26	1581.28	-28334.2	1	28378.3	-86.8057	2.01035E-008	-4.29832	7
	94	633	998.26	1585.73	-28167.2	1	28211.8	-86.7778	2.3414E-008	-4.39835	7
	95	638	998.26	1586.8	-28142.5	1	28187.2	-86.7728	1.10057E-008	-4.49827	7
	96	644	998.26	1721.11	-28048.3	1	28101.1	-86.4886	2.17845E-008	-4.59827	7
	97	650	998.26	1627.46	-27873.5	1	27921	-86.6584	2.38981E-008	-4.69818	7
	98	656	998.26	1623.15	-27901.5	1	27948.6	-86.6706	2.40812E-008	-4.79816	7
	99	662	998.26	1600.8	-27675.2	1	27721.5	-86.6896	1.67271E-008	-4.89809	7
	100	668	998.26	1696.59	-27534.6	1	27586.8	-86.4741	1.20888E-008	-4.99819	7

File: C0_MS_pH7_02.DTA
EXPLAIN
TAG	MOTTSCHOTTKY
TITLE	LABEL	Mott-Schottky	Test &Identifier
DATE	LABEL	29-10-2009	Date
TIME	LABEL	20:36:46	Time
NOTES	NOTES	2	&Notes...
	Si/SiO2
	T=25.3oC
PSTAT	PSTAT	REF600-07089	Potentiostat
VINIT	POTEN	3.00000E+000	F	Initial &Voltage (V)
VFINAL	POTEN	-3.00000E+000	F	Final &Voltage (V)
VSTEP	QUANT	1.00000E-001	&Voltage Step (V)
FREQINIT	QUANT	1.00000E+003	Fre&quency (Hz)
VAC	QUANT	1.00000E+001	AC &Voltage (mV rms)
AREA	QUANT	1.00000E-002	&Area (cm^2)
CONDIT	TWOPARAM	T	2.00000E+001	3.00000E+000	Conditionin&g	Time(s)	E(V)
DELAY	TWOPARAM	T	2.50000E-001	0.00000E+000	Init. De&lay	Time(s)	Stab.(mV/s)
SPEED	SELECTOR	1	&Optimize for:
ZGUESS	QUANT	1.00000E+002	E&stimated Z (ohms)
OCVCURVE	TABLE	1
	Pt	T	Vf	Vm	Ach	Over
	#	s	V vs. Ref.	V	V	bits
	0	0.258333	3.67165E+000	0.00000E+000	-2.34136E-004	.............
EOC	QUANT	3.67165	Open Circuit (V)
PSTATMODEL	IQUANT	4	Pstat Model
PSTATSECTION	LABEL	REF600-07089	Pstat Section
PSTATSERIALNO	LABEL	07089	Pstat Serial Number
CTRLMODE	IQUANT	1	Control Mode
IESTAB	IQUANT	0	I/E Stability
CASPEED	IQUANT	2	Control Amp Speed
CONVENTION	IQUANT	1	Current Convention
ICHRANGE	IQUANT	2	Ich Range
ICHRANGEMODE	TOGGLE	F	Ich Auto Range
ICHOFFSETENABLE	TOGGLE	T	Ich Offset Enable
ICHOFFSET	QUANT	0	Ich Offset (V)
ICHFILTER	IQUANT	3	Ich Filter
VCHRANGE	IQUANT	2	Vch Range
VCHRANGEMODE	TOGGLE	F	Vch Auto Range
VCHOFFSETENABLE	TOGGLE	T	Vch Offset Enable
VCHOFFSET	QUANT	0	Vch Offset (V)
VCHFILTER	IQUANT	3	Vch Filter
ACHRANGE	IQUANT	2	Ach Range
ACHOFFSETENABLE	TOGGLE	F	Ach Offset Enable
ACHOFFSET	QUANT	0	Ach Offset (V)
ACHFILTER	IQUANT	1	Ach Filter
IERANGELOWERLIMIT	IQUANT	1	I/E Range Lower Limit
IERANGEMODE	TOGGLE	F	I/E AutoRange
IERANGE	IQUANT	10	I/E Range
POSFEEDENABLE	TOGGLE	F	Positive Feedback IR Comp
POSFEEDRESISTANCE	QUANT	0	Positive Feedback Resistance (ohm)
ACHSELECT	IQUANT	0	Ach Select
CABLEID	IQUANT	14	Cable ID
DCCALDATE	LABEL	14-4-2009	DC Calibration Date
ACCALDATE	LABEL	14-4-2009	AC Calibration Date
THERMOSELECT	IQUANT	0	Thermo Select
FRAMEWORKVERSION	QUANT	5.5	Framework Version
INSTRUMENTVERSION	LABEL	2.00	Instrument Version
ZCURVE	TABLE
	Pt	Time	Freq	Zreal	Zimag	Zsig	Zmod	Zphz	Idc	Vdc	IERange
	#	s	Hz	ohm	ohm	V	ohm	°	A	V	#
	0	11	998.26	1374.23	-18723.6	1	18773.9	-85.8023	1.59569E-008	2.99895	7
	1	17	998.26	1418.29	-18728.3	1	18782	-85.6693	1.39952E-008	2.89901	7
	2	23	998.26	1397.56	-18814.7	1	18866.5	-85.7518	9.47619E-009	2.79904	7
	3	28	998.26	1355.56	-18833.7	1	18882.4	-85.8832	5.28509E-009	2.69909	7
	4	34	998.26	1430.91	-18819.8	1	18874.1	-85.652	2.22981E-009	2.5991	7
	5	40	998.26	1403.24	-18873.1	1	18925.2	-85.7478	1.15675E-008	2.49918	7
	6	46	998.26	1370.56	-18891	1	18940.7	-85.8504	9.24335E-009	2.39921	7
	7	53	998.26	1459.48	-18924.6	1	18980.8	-85.59	2.46631E-009	2.29924	7
	8	59	998.26	1436.31	-19016.3	1	19070.5	-85.6806	9.95917E-009	2.19927	7
	9	64	998.26	1449.57	-19052.4	1	19107.5	-85.6491	3.38578E-009	2.0993	7
	10	70	998.26	1422.77	-19107.2	1	19160.1	-85.7415	4.88601E-010	1.99932	7
	11	76	998.26	1424.46	-19148.5	1	19201.4	-85.7456	9.60173E-009	1.8994	7
	12	81	998.26	1404.9	-19252.9	1	19304.1	-85.8265	1.31261E-010	1.79937	7
	13	87	998.26	1475.53	-19334.6	1	19390.8	-85.6359	1.48392E-008	1.69949	7
	14	92	998.26	1444.45	-19368.8	1	19422.6	-85.735	9.30243E-010	1.59958	7
	15	98	998.26	1407.68	-19525.6	1	19576.3	-85.8765	2.96923E-009	1.49965	7
	16	104	998.26	1436.44	-19603.7	1	19656.2	-85.8092	9.08969E-009	1.39967	7
	17	110	998.26	1466.6	-19754.8	1	19809.2	-85.7541	1.02738E-008	1.29972	7
	18	115	998.26	1500.44	-19919.4	1	19975.9	-85.6923	1.35748E-008	1.19979	7
	19	121	998.26	1489.14	-20077.3	1	20132.4	-85.7581	9.14342E-009	1.09974	7
	20	126	998.26	1411.97	-20268.8	1	20317.9	-86.0151	3.39846E-009	0.99975	7
	21	132	998.26	1453.01	-20494.7	1	20546.1	-85.9447	6.14224E-009	0.899786	7
	22	138	998.26	1460.72	-20783.8	1	20835.1	-85.9798	8.05682E-009	0.799852	7
	23	143	998.26	1472.12	-21017	1	21068.5	-85.9933	1.40444E-009	0.699876	7
	24	152	998.26	1527.48	-21372.3	1	21426.8	-85.912	1.26198E-008	0.599923	7
	25	160	998.26	1421.54	-21621.4	1	21668	-86.2384	1.37588E-008	0.499986	7
	26	168	998.26	1455.34	-21897.8	1	21946.1	-86.1977	1.41536E-008	0.400028	7
	27	176	998.26	1457.52	-22206.6	1	22254.4	-86.2448	1.79441E-010	0.300061	7
	28	185	998.26	1522.31	-22614.4	1	22665.6	-86.1489	4.31065E-009	0.200099	7
	29	193	998.26	1500.83	-22887.5	1	22936.7	-86.2482	2.04497E-009	0.100176	7
	30	201	998.26	1587.2	-23179.1	1	23233.4	-86.0827	1.62877E-009	0.000195	7
	31	209	998.26	1663.13	-23483.1	1	23541.9	-85.9489	7.6895E-009	-0.100019	7
	32	221	998.26	1680.13	-23998.4	1	24057.2	-85.9953	1.63723E-008	-0.199943	7
	33	235	998.26	1696.92	-24556.3	1	24614.8	-86.047	9.15531E-009	-0.299939	7
	34	249	998.26	1692.89	-24988	1	25045.2	-86.1242	1.1455E-008	-0.399881	7
	35	255	998.26	1749.37	-25557.9	1	25617.7	-86.0844	3.54855E-009	-0.499861	7
	36	261	998.26	1674.4	-25888.9	1	25943	-86.2995	3.57325E-009	-0.5998	7
	37	267	998.26	1720.29	-26244	1	26300.4	-86.2496	1.53028E-008	-0.699748	7
	38	273	998.26	1639.98	-26694.6	1	26745	-86.4845	3.76011E-009	-0.799701	7
	39	279	998.26	1563.2	-26859.4	1	26904.8	-86.6692	3.4076E-009	-0.899684	7
	40	285	998.26	1630.05	-27146.2	1	27195.1	-86.5637	2.19263E-009	-0.99965	7
	41	291	998.26	1649.3	-27595.7	1	27644.9	-86.5797	7.71087E-009	-1.09968	7
	42	297	998.26	1727.21	-27811.6	1	27865.2	-86.4463	1.14051E-008	-1.19964	7
	43	302	998.26	1577.76	-28161.9	1	28206	-86.7934	9.49072E-009	-1.29957	7
	44	308	998.26	1631.81	-28306.1	1	28353.1	-86.7006	-4.90467E-010	-1.39957	7
	45	313	998.26	1600.68	-28601.7	1	28646.5	-86.7968	6.52259E-009	-1.49951	7
	46	319	998.26	1742.59	-28677.2	1	28730.1	-86.5227	2.67279E-009	-1.59944	7
	47	325	998.26	1673.39	-28653.5	1	28702.3	-86.6577	3.88423E-009	-1.69939	7
	48	331	998.26	1671.3	-28778.3	1	28826.8	-86.6763	-1.10038E-009	-1.79934	7
	49	336	998.26	1577.57	-28983.5	1	29026.4	-86.8845	1.28583E-008	-1.89929	7
	50	341	998.26	1709.47	-28972.4	1	29022.8	-86.6233	-8.25554E-010	-1.99927	7
	51	347	998.26	1570.22	-28940.3	1	28982.9	-86.8943	1.05905E-008	-2.09922	7
	52	353	998.26	1613.78	-28843.3	1	28888.4	-86.7977	2.20251E-009	-2.19919	7
	53	358	998.26	1672.58	-28723.5	1	28772.1	-86.6674	6.24076E-010	-2.2992	7
	54	364	998.26	1595.14	-28765.2	1	28809.4	-86.826	1.10841E-008	-2.39911	7
	55	370	998.26	1538.2	-28683.1	1	28724.3	-86.9303	7.82385E-009	-2.49908	7
	56	376	998.26	1457.69	-28740.8	1	28777.7	-87.0965	1.07366E-008	-2.59903	7
	57	381	998.26	1489.52	-28747.6	1	28786.1	-87.0339	1.25933E-008	-2.69899	7
	58	387	998.26	1556.34	-28692.9	1	28735.1	-86.8952	4.30032E-009	-2.799	7
	59	393	998.26	1580.5	-28481.7	1	28525.5	-86.8238	1.36108E-008	-2.89888	7
	60	398	998.26	1605	-28567.2	1	28612.2	-86.7843	9.75093E-009	-2.99887	7

File: C0_MS_pH7_03.DTA
EXPLAIN
TAG	MOTTSCHOTTKY
TITLE	LABEL	Mott-Schottky	Test &Identifier
DATE	LABEL	29-10-2009	Date
TIME	LABEL	20:44:13	Time
NOTES	NOTES	2	&Notes...
	Si/SiO2
	T=25.3oC
PSTAT	PSTAT	REF600-07089	Potentiostat
VINIT	POTEN	3.00000E+000	F	Initial &Voltage (V)
VFINAL	POTEN	-3.00000E+000	F	Final &Voltage (V)
VSTEP	QUANT	1.00000E-001	&Voltage Step (V)
FREQINIT	QUANT	1.00000E+003	Fre&quency (Hz)
VAC	QUANT	1.00000E+001	AC &Voltage (mV rms)
AREA	QUANT	1.00000E-002	&Area (cm^2)
CONDIT	TWOPARAM	T	2.00000E+001	3.00000E+000	Conditionin&g	Time(s)	E(V)
DELAY	TWOPARAM	T	2.50000E-001	0.00000E+000	Init. De&lay	Time(s)	Stab.(mV/s)
SPEED	SELECTOR	1	&Optimize for:
ZGUESS	QUANT	1.00000E+002	E&stimated Z (ohms)
OCVCURVE	TABLE	1
	Pt	T	Vf	Vm	Ach	Over
	#	s	V vs. Ref.	V	V	bits
	0	0.258333	3.66749E+000	0.00000E+000	-2.40936E-004	.............
EOC	QUANT	3.66749	Open Circuit (V)
PSTATMODEL	IQUANT	4	Pstat Model
PSTATSECTION	LABEL	REF600-07089	Pstat Section
PSTATSERIALNO	LABEL	07089	Pstat Serial Number
CTRLMODE	IQUANT	1	Control Mode
IESTAB	IQUANT	0	I/E Stability
CASPEED	IQUANT	2	Control Amp Speed
CONVENTION	IQUANT	1	Current Convention
ICHRANGE	IQUANT	2	Ich Range
ICHRANGEMODE	TOGGLE	F	Ich Auto Range
ICHOFFSETENABLE	TOGGLE	T	Ich Offset Enable
ICHOFFSET	QUANT	0	Ich Offset (V)
ICHFILTER	IQUANT	3	Ich Filter
VCHRANGE	IQUANT	2	Vch Range
VCHRANGEMODE	TOGGLE	F	Vch Auto Range
VCHOFFSETENABLE	TOGGLE	T	Vch Offset Enable
VCHOFFSET	QUANT	0	Vch Offset (V)
VCHFILTER	IQUANT	3	Vch Filter
ACHRANGE	IQUANT	2	Ach Range
ACHOFFSETENABLE	TOGGLE	F	Ach Offset Enable
ACHOFFSET	QUANT	0	Ach Offset (V)
ACHFILTER	IQUANT	1	Ach Filter
IERANGELOWERLIMIT	IQUANT	1	I/E Range Lower Limit
IERANGEMODE	TOGGLE	F	I/E AutoRange
IERANGE	IQUANT	10	I/E Range
POSFEEDENABLE	TOGGLE	F	Positive Feedback IR Comp
POSFEEDRESISTANCE	QUANT	0	Positive Feedback Resistance (ohm)
ACHSELECT	IQUANT	0	Ach Select
CABLEID	IQUANT	14	Cable ID
DCCALDATE	LABEL	14-4-2009	DC Calibration Date
ACCALDATE	LABEL	14-4-2009	AC Calibration Date
THERMOSELECT	IQUANT	0	Thermo Select
FRAMEWORKVERSION	QUANT	5.5	Framework Version
INSTRUMENTVERSION	LABEL	2.00	Instrument Version
ZCURVE	TABLE
	Pt	Time	Freq	Zreal	Zimag	Zsig	Zmod	Zphz	Idc	Vdc	IERange
	#	s	Hz	ohm	ohm	V	ohm	°	A	V	#
	0	11	998.26	1427.82	-18775.5	1	18829.7	-85.6512	1.28448E-008	2.99892	7
	1	15	998.26	1416.38	-18747.8	1	18801.2	-85.6796	1.13275E-008	2.89898	7
	2	21	998.26	1488.16	-18739.1	1	18798.1	-85.4594	6.56634E-009	2.79902	7
	3	26	998.26	1447.88	-18768.8	1	18824.5	-85.5888	1.60958E-008	2.69909	7
	4	33	998.26	1413.9	-18798.7	1	18851.8	-85.6987	1.06805E-008	2.5991	7
	5	39	998.26	1424.05	-18859.7	1	18913.4	-85.6819	1.56295E-008	2.49918	7
	6	45	998.26	1442.85	-18898.5	1	18953.5	-85.6341	1.48232E-008	2.39922	7
	7	50	998.26	1456.21	-18937	1	18992.9	-85.6027	7.91757E-011	2.29922	7
	8	56	998.26	1446	-18983.3	1	19038.3	-85.6441	3.14513E-009	2.19925	7
	9	61	998.26	1389.96	-19048.5	1	19099.1	-85.8266	3.50296E-010	2.09929	7
	10	67	998.26	1469.24	-19057.6	1	19114.1	-85.5915	3.89176E-009	1.99931	7
	11	73	998.26	1374.01	-19137.6	1	19186.9	-85.8934	1.13002E-008	1.89939	7
	12	78	998.26	1513.76	-19196.4	1	19256	-85.4912	6.55031E-010	1.79936	7
	13	84	998.26	1444.5	-19314.6	1	19368.5	-85.7229	4.51294E-009	1.69946	7
	14	90	998.26	1457.03	-19383.6	1	19438.3	-85.7013	7.17632E-009	1.5996	7
	15	95	998.26	1468.76	-19463.9	1	19519.3	-85.6846	3.56489E-009	1.49963	7
	16	101	998.26	1471.82	-19541.3	1	19596.6	-85.6927	1.60655E-009	1.39964	7
	17	106	998.26	1455.42	-19731.3	1	19784.9	-85.7814	1.06552E-008	1.29972	7
	18	112	998.26	1494.98	-19860.3	1	19916.5	-85.6952	8.64483E-009	1.19977	7
	19	118	998.26	1445.54	-20015.3	1	20067.4	-85.8692	9.62891E-009	1.09973	7
	20	126	998.26	1514.45	-20263.4	1	20319.9	-85.7258	2.69836E-009	0.99974	7
	21	132	998.26	1477.58	-20406.8	1	20460.2	-85.8587	1.58519E-009	0.899774	7
	22	140	998.26	1458.72	-20777.9	1	20829.1	-85.9841	1.15971E-008	0.799853	7
	23	148	998.26	1510.01	-21069.9	1	21123.9	-85.9008	1.50995E-008	0.699901	7
	24	156	998.26	1500.14	-21277.9	1	21330.7	-85.9672	1.37233E-008	0.599921	7
	25	165	998.26	1484.53	-21552.2	1	21603.3	-86.0596	1.34138E-008	0.499979	7
	26	173	998.26	1548.09	-21971.6	1	22026.1	-85.9697	1.1738E-008	0.400024	7
	27	181	998.26	1567.98	-22234.7	1	22289.9	-85.9662	3.62297E-009	0.300064	7
	28	192	998.26	1528.87	-22571.5	1	22623.2	-86.125	4.87939E-009	0.200092	7
	29	203	998.26	1501.08	-22786	1	22835.4	-86.231	4.29398E-009	0.100165	7
	30	217	998.26	1523.41	-23228.7	1	23278.6	-86.2477	1.30703E-008	0.000213	7
	31	223	998.26	1653.54	-23548.7	1	23606.7	-85.9834	1.31452E-008	-0.10001	7
	32	229	998.26	1673.99	-23961.7	1	24020.1	-86.0037	7.66041E-009	-0.199967	7
	33	235	998.26	1772.45	-24509.9	1	24573.9	-85.8638	2.94214E-009	-0.299951	7
	34	240	998.26	1708.49	-24986	1	25044.3	-86.0883	5.73478E-009	-0.399874	7
	35	246	998.26	1818.65	-25420.7	1	25485.6	-85.9079	9.11299E-009	-0.49984	7
	36	252	998.26	1646.78	-25835.2	1	25887.6	-86.3528	7.76284E-009	-0.599787	7
	37	258	998.26	1717.84	-26208.3	1	26264.5	-86.2499	8.14823E-009	-0.699769	7
	38	264	998.26	1618.06	-26642.5	1	26691.6	-86.5246	1.21841E-008	-0.799685	7
	39	270	998.26	1702.99	-26926	1	26979.8	-86.381	2.47205E-010	-0.899689	7
	40	275	998.26	1634.07	-27196.8	1	27245.8	-86.5616	7.22016E-009	-0.99963	7
	41	281	998.26	1590.85	-27385.9	1	27432.1	-86.6754	-5.19328E-011	-1.09971	7
	42	287	998.26	1564.38	-27763.2	1	27807.2	-86.7749	8.15261E-009	-1.19965	7
	43	293	998.26	1587.24	-28101.6	1	28146.4	-86.7672	9.74839E-009	-1.29958	7
	44	299	998.26	1733.21	-28351.3	1	28404.3	-86.5017	4.12584E-009	-1.39957	7
	45	305	998.26	1639.27	-28338.2	1	28385.5	-86.6893	1.07175E-008	-1.49951	7
	46	310	998.26	1697.94	-28608.4	1	28658.8	-86.6034	1.27226E-008	-1.59942	7
	47	315	998.26	1733.79	-28643.1	1	28695.6	-86.5361	7.95927E-009	-1.69938	7
	48	321	998.26	1787.63	-28705.4	1	28761	-86.4365	5.70663E-009	-1.79933	7
	49	326	998.26	1643.26	-28838.4	1	28885.2	-86.7387	2.95312E-009	-1.89931	7
	50	331	998.26	1682.64	-28752.1	1	28801.3	-86.6507	4.26961E-009	-1.99926	7
	51	337	998.26	1574.46	-28911.2	1	28954.1	-86.8828	2.49823E-009	-2.09925	7
	52	342	998.26	1559.22	-28793.1	1	28835.3	-86.9003	9.54245E-009	-2.19918	7
	53	348	998.26	1538.95	-28808.6	1	28849.7	-86.9422	1.02799E-008	-2.29918	7
	54	354	998.26	1574.83	-28623.8	1	28667.1	-86.8509	8.05923E-009	-2.39912	7
	55	360	998.26	1634.47	-28806.3	1	28852.6	-86.7525	3.74713E-009	-2.49909	7
	56	366	998.26	1547.55	-28656	1	28697.7	-86.9088	1.12388E-008	-2.59903	7
	57	371	998.26	1540.74	-28610.4	1	28651.8	-86.9174	9.88806E-009	-2.699	7
	58	377	998.26	1663.94	-28632.9	1	28681.2	-86.6741	2.93816E-009	-2.799	7
	59	383	998.26	1526.94	-28559.8	1	28600.5	-86.9396	8.23147E-009	-2.89891	7
	60	388	998.26	1519.86	-28568.8	1	28609.2	-86.9547	7.28305E-009	-2.99888	7