Folder: Scientific_Analysis_MN/OriginPro/EIS (part 9)

File: C0_MS_pH10_05.DTA
EXPLAIN
TAG	MOTTSCHOTTKY
TITLE	LABEL	Mott-Schottky	Test &Identifier
DATE	LABEL	30-10-2009	Date
TIME	LABEL	0:32:08	Time
NOTES	NOTES	2	&Notes...
	Si/SiO2
	T=25.3oC
PSTAT	PSTAT	REF600-07089	Potentiostat
VINIT	POTEN	3.00000E+000	F	Initial &Voltage (V)
VFINAL	POTEN	-3.00000E+000	F	Final &Voltage (V)
VSTEP	QUANT	1.00000E-001	&Voltage Step (V)
FREQINIT	QUANT	5.00000E+003	Fre&quency (Hz)
VAC	QUANT	1.00000E+001	AC &Voltage (mV rms)
AREA	QUANT	1.00000E-002	&Area (cm^2)
CONDIT	TWOPARAM	T	2.00000E+001	3.00000E+000	Conditionin&g	Time(s)	E(V)
DELAY	TWOPARAM	T	2.50000E-001	0.00000E+000	Init. De&lay	Time(s)	Stab.(mV/s)
SPEED	SELECTOR	1	&Optimize for:
ZGUESS	QUANT	1.00000E+002	E&stimated Z (ohms)
OCVCURVE	TABLE	1
	Pt	T	Vf	Vm	Ach	Over
	#	s	V vs. Ref.	V	V	bits
	0	0.258333	3.65878E+000	0.00000E+000	1.39630E-004	.............
EOC	QUANT	3.65878	Open Circuit (V)
PSTATMODEL	IQUANT	4	Pstat Model
PSTATSECTION	LABEL	REF600-07089	Pstat Section
PSTATSERIALNO	LABEL	07089	Pstat Serial Number
CTRLMODE	IQUANT	1	Control Mode
IESTAB	IQUANT	0	I/E Stability
CASPEED	IQUANT	2	Control Amp Speed
CONVENTION	IQUANT	1	Current Convention
ICHRANGE	IQUANT	2	Ich Range
ICHRANGEMODE	TOGGLE	F	Ich Auto Range
ICHOFFSETENABLE	TOGGLE	T	Ich Offset Enable
ICHOFFSET	QUANT	0	Ich Offset (V)
ICHFILTER	IQUANT	3	Ich Filter
VCHRANGE	IQUANT	2	Vch Range
VCHRANGEMODE	TOGGLE	F	Vch Auto Range
VCHOFFSETENABLE	TOGGLE	T	Vch Offset Enable
VCHOFFSET	QUANT	0	Vch Offset (V)
VCHFILTER	IQUANT	3	Vch Filter
ACHRANGE	IQUANT	2	Ach Range
ACHOFFSETENABLE	TOGGLE	F	Ach Offset Enable
ACHOFFSET	QUANT	0	Ach Offset (V)
ACHFILTER	IQUANT	2	Ach Filter
IERANGELOWERLIMIT	IQUANT	1	I/E Range Lower Limit
IERANGEMODE	TOGGLE	F	I/E AutoRange
IERANGE	IQUANT	10	I/E Range
POSFEEDENABLE	TOGGLE	F	Positive Feedback IR Comp
POSFEEDRESISTANCE	QUANT	0	Positive Feedback Resistance (ohm)
ACHSELECT	IQUANT	0	Ach Select
CABLEID	IQUANT	14	Cable ID
DCCALDATE	LABEL	14-4-2009	DC Calibration Date
ACCALDATE	LABEL	14-4-2009	AC Calibration Date
THERMOSELECT	IQUANT	0	Thermo Select
FRAMEWORKVERSION	QUANT	5.5	Framework Version
INSTRUMENTVERSION	LABEL	2.00	Instrument Version
ZCURVE	TABLE
	Pt	Time	Freq	Zreal	Zimag	Zsig	Zmod	Zphz	Idc	Vdc	IERange
	#	s	Hz	ohm	ohm	V	ohm	°	A	V	#
	0	13	5015.63	871.322	-3964.66	1	4059.28	-77.605	1.30773E-007	2.99892	8
	1	19	5015.63	871.257	-3973.65	1	4068.05	-77.6331	7.7914E-008	2.89893	8
	2	25	5015.63	877.658	-3969.98	1	4065.84	-77.5339	8.58707E-008	2.799	8
	3	31	5015.63	871.973	-3981.15	1	4075.52	-77.6459	6.09702E-008	2.69903	8
	4	37	5015.63	871.263	-3978.36	1	4072.65	-77.6472	7.21472E-008	2.59907	8
	5	42	5015.63	867.23	-3997.4	1	4090.39	-77.7594	6.76735E-008	2.49914	8
	6	48	5015.63	868.917	-3998.29	1	4091.62	-77.739	7.94629E-008	2.39919	8
	7	54	5015.63	878.103	-3997.55	1	4092.86	-77.6112	7.12331E-008	2.29923	8
	8	60	5015.63	872.958	-4017.77	1	4111.52	-77.7417	6.585E-008	2.19924	8
	9	66	5015.63	877.336	-4015.56	1	4110.28	-77.6754	3.56176E-008	2.09925	8
	10	72	5015.63	872.182	-4027.38	1	4120.74	-77.7805	6.91132E-008	1.99931	8
	11	78	5015.63	874.508	-4030.49	1	4124.27	-77.7581	5.93235E-008	1.89937	8
	12	84	5015.63	871.202	-4037.97	1	4130.89	-77.8249	7.61202E-008	1.79938	8
	13	90	5015.63	873.32	-4053.46	1	4146.48	-77.8415	3.46227E-008	1.69943	8
	14	96	5015.63	875.89	-4067.22	1	4160.46	-77.8467	5.7934E-008	1.59958	8
	15	102	5015.63	881.293	-4082.54	1	4176.58	-77.8185	3.79227E-008	1.49959	8
	16	107	5015.63	878.02	-4097.6	1	4190.61	-77.9057	3.83403E-008	1.39962	8
	17	113	5015.63	877.429	-4111.65	1	4204.23	-77.9537	4.99787E-008	1.29967	8
	18	119	5015.63	886.909	-4130.41	1	4224.56	-77.8811	3.63135E-008	1.19974	8
	19	125	5015.63	877.948	-4151.44	1	4243.26	-78.059	6.0135E-008	1.09972	8
	20	131	5015.63	879.083	-4182.53	1	4273.92	-78.1304	7.2431E-008	0.99975	8
	21	137	5015.63	885.567	-4211.68	1	4303.77	-78.1257	5.32478E-008	0.899776	8
	22	142	5015.63	877.824	-4258.79	1	4348.32	-78.3533	7.70597E-008	0.799854	8
	23	148	5015.63	888.731	-4294.41	1	4385.41	-78.3077	6.00839E-008	0.699889	8
	24	154	5015.63	883.038	-4338.04	1	4427	-78.4942	3.8854E-008	0.599881	8
	25	159	5015.63	878.739	-4382.58	1	4469.81	-78.6621	8.16456E-008	0.499983	8
	26	165	5015.63	879.317	-4443.27	1	4529.44	-78.8059	6.15051E-008	0.399998	8
	27	171	5015.63	880.09	-4503.84	1	4589.03	-78.9432	5.90075E-008	0.300061	8
	28	177	5015.63	889.151	-4565.27	1	4651.05	-78.9788	8.48997E-008	0.20011	8
	29	183	5015.63	883.798	-4623.21	1	4706.93	-79.1776	8.16051E-008	0.100191	8
	30	189	5015.63	890.852	-4690.04	1	4773.89	-79.245	4.82548E-008	0.000186	8
	31	195	5015.63	900.429	-4748.47	1	4833.09	-79.2628	7.66433E-008	-0.100023	8
	32	201	5015.63	894.809	-4824.53	1	4906.81	-79.4927	7.67224E-008	-0.199957	8
	33	207	5015.63	925.734	-4907	1	4993.56	-79.3164	8.48826E-008	-0.299921	8
	34	212	5015.63	929.491	-4991.4	1	5077.21	-79.4513	5.26282E-008	-0.399897	8
	35	218	5015.63	941.016	-5101.06	1	5187.13	-79.5479	1.61875E-008	-0.49984	7
	36	224	5015.63	937.251	-5193.54	1	5277.43	-79.7702	5.22203E-009	-0.599815	7
	37	229	5015.63	926.947	-5279.89	1	5360.64	-80.0425	9.7028E-009	-0.699779	7
	38	235	5015.63	918.997	-5358.46	1	5436.7	-80.2682	1.14949E-008	-0.799694	7
	39	240	5015.63	911.41	-5428.38	1	5504.36	-80.4691	1.32092E-008	-0.899662	7
	40	246	5015.63	913.567	-5497.48	1	5572.87	-80.5648	1.04469E-008	-0.99963	7
	41	252	5015.63	908.266	-5557.69	1	5631.42	-80.7185	1.04113E-008	-1.09968	7
	42	257	5015.63	908.863	-5616.87	1	5689.93	-80.8087	1.92948E-009	-1.19966	7
	43	263	5015.63	913.593	-5676.08	1	5749.13	-80.8564	1.14633E-008	-1.29957	7
	44	269	5015.63	908.043	-5731.73	1	5803.21	-80.9978	4.26871E-009	-1.39956	7
	45	274	5015.63	909.943	-5792.77	1	5863.8	-81.0728	1.38984E-008	-1.49949	7
	46	280	5015.63	914.966	-5839.25	1	5910.5	-81.0946	1.15162E-008	-1.59942	7
	47	286	5015.63	920.353	-5890.17	1	5961.64	-81.1192	7.04907E-009	-1.69937	7
	48	291	5015.63	931.248	-5939.53	1	6012.09	-81.0892	4.5136E-009	-1.79933	7
	49	297	5015.63	945.192	-5969.66	1	6044.03	-81.0029	6.77577E-009	-1.8993	7
	50	302	5015.63	952.21	-5992.33	1	6067.51	-80.9709	3.10347E-009	-1.99927	7
	51	308	5015.63	966.38	-5996.87	1	6074.23	-80.8457	1.3301E-009	-2.09926	7
	52	313	5015.63	967.43	-5997	1	6074.53	-80.836	7.22137E-009	-2.1992	7
	53	318	5015.63	973.19	-5983.55	1	6062.18	-80.7621	2.97204E-009	-2.2992	7
	54	324	5015.63	966.07	-5972.6	1	6050.22	-80.812	7.72073E-009	-2.39911	7
	55	330	5015.63	963.72	-5964.34	1	6041.69	-80.8215	5.11648E-009	-2.49908	7
	56	335	5015.63	968.2	-5955.11	1	6033.3	-80.7655	6.41126E-009	-2.59904	7
	57	340	5015.63	968.35	-5942.9	1	6021.28	-80.7454	1.18724E-008	-2.69899	7
	58	346	5015.63	968.37	-5934.58	1	6013.07	-80.7324	1.9823E-009	-2.79899	7
	59	351	5015.63	975.56	-5930.66	1	6010.36	-80.6588	9.5427E-009	-2.89887	7
	60	356	5015.63	981.79	-5916.73	1	5997.64	-80.5785	9.52388E-009	-2.99886	7

File: C0_MS_pH10_06.DTA
EXPLAIN
TAG	MOTTSCHOTTKY
TITLE	LABEL	Mott-Schottky	Test &Identifier
DATE	LABEL	30-10-2009	Date
TIME	LABEL	0:39:11	Time
NOTES	NOTES	2	&Notes...
	Si/SiO2
	T=25.3oC
PSTAT	PSTAT	REF600-07089	Potentiostat
VINIT	POTEN	3.00000E+000	F	Initial &Voltage (V)
VFINAL	POTEN	-3.00000E+000	F	Final &Voltage (V)
VSTEP	QUANT	1.00000E-001	&Voltage Step (V)
FREQINIT	QUANT	1.00000E+004	Fre&quency (Hz)
VAC	QUANT	1.00000E+001	AC &Voltage (mV rms)
AREA	QUANT	1.00000E-002	&Area (cm^2)
CONDIT	TWOPARAM	T	2.00000E+001	3.00000E+000	Conditionin&g	Time(s)	E(V)
DELAY	TWOPARAM	T	2.50000E-001	0.00000E+000	Init. De&lay	Time(s)	Stab.(mV/s)
SPEED	SELECTOR	1	&Optimize for:
ZGUESS	QUANT	1.00000E+002	E&stimated Z (ohms)
OCVCURVE	TABLE	1
	Pt	T	Vf	Vm	Ach	Over
	#	s	V vs. Ref.	V	V	bits
	0	0.258333	3.64339E+000	0.00000E+000	4.71320E-004	.............
EOC	QUANT	3.64339	Open Circuit (V)
PSTATMODEL	IQUANT	4	Pstat Model
PSTATSECTION	LABEL	REF600-07089	Pstat Section
PSTATSERIALNO	LABEL	07089	Pstat Serial Number
CTRLMODE	IQUANT	1	Control Mode
IESTAB	IQUANT	0	I/E Stability
CASPEED	IQUANT	2	Control Amp Speed
CONVENTION	IQUANT	1	Current Convention
ICHRANGE	IQUANT	2	Ich Range
ICHRANGEMODE	TOGGLE	F	Ich Auto Range
ICHOFFSETENABLE	TOGGLE	T	Ich Offset Enable
ICHOFFSET	QUANT	0	Ich Offset (V)
ICHFILTER	IQUANT	3	Ich Filter
VCHRANGE	IQUANT	2	Vch Range
VCHRANGEMODE	TOGGLE	F	Vch Auto Range
VCHOFFSETENABLE	TOGGLE	T	Vch Offset Enable
VCHOFFSET	QUANT	0	Vch Offset (V)
VCHFILTER	IQUANT	3	Vch Filter
ACHRANGE	IQUANT	2	Ach Range
ACHOFFSETENABLE	TOGGLE	F	Ach Offset Enable
ACHOFFSET	QUANT	0	Ach Offset (V)
ACHFILTER	IQUANT	1	Ach Filter
IERANGELOWERLIMIT	IQUANT	1	I/E Range Lower Limit
IERANGEMODE	TOGGLE	F	I/E AutoRange
IERANGE	IQUANT	10	I/E Range
POSFEEDENABLE	TOGGLE	F	Positive Feedback IR Comp
POSFEEDRESISTANCE	QUANT	0	Positive Feedback Resistance (ohm)
ACHSELECT	IQUANT	0	Ach Select
CABLEID	IQUANT	14	Cable ID
DCCALDATE	LABEL	14-4-2009	DC Calibration Date
ACCALDATE	LABEL	14-4-2009	AC Calibration Date
THERMOSELECT	IQUANT	0	Thermo Select
FRAMEWORKVERSION	QUANT	5.5	Framework Version
INSTRUMENTVERSION	LABEL	2.00	Instrument Version
ZCURVE	TABLE
	Pt	Time	Freq	Zreal	Zimag	Zsig	Zmod	Zphz	Idc	Vdc	IERange
	#	s	Hz	ohm	ohm	V	ohm	°	A	V	#
	0	10	10078.1	624.09	-2126.04	1	2215.75	-73.6406	1.06987E-007	2.99892	8
	1	15	10078.1	624.362	-2126.89	1	2216.64	-73.64	1.00483E-007	2.89898	8
	2	21	10078.1	623.012	-2127.81	1	2217.14	-73.6802	5.15766E-008	2.799	8
	3	26	10078.1	621.77	-2131.03	1	2219.88	-73.7343	5.16313E-008	2.69903	8
	4	32	10078.1	621.81	-2136.12	1	2224.78	-73.7701	7.01726E-008	2.59909	8
	5	37	10078.1	623.424	-2136.9	1	2225.98	-73.7358	6.64842E-008	2.49916	8
	6	43	10078.1	622.225	-2138.69	1	2227.37	-73.7783	6.73358E-008	2.3992	8
	7	49	10078.1	623.03	-2143.23	1	2231.95	-73.791	3.42322E-008	2.2992	8
	8	55	10078.1	621.24	-2143.55	1	2231.76	-73.8375	6.50169E-008	2.19925	8
	9	60	10078.1	620.768	-2148.8	1	2236.68	-73.8865	6.70717E-008	2.0993	8
	10	66	10078.1	623.124	-2154.09	1	2242.41	-73.8662	3.58987E-008	1.99928	8
	11	72	10078.1	621.582	-2156.51	1	2244.31	-73.9212	5.43681E-008	1.89937	8
	12	78	10078.1	622.882	-2158.43	1	2246.51	-73.9029	6.16387E-008	1.79937	8
	13	84	10078.1	623.212	-2165.23	1	2253.13	-73.9427	7.29657E-008	1.69948	8
	14	89	10078.1	623.133	-2172.53	1	2260.13	-73.9958	5.69963E-008	1.59956	8
	15	98	10078.1	623.887	-2183.21	1	2270.61	-74.0519	8.64576E-008	1.49964	8
	16	106	10078.1	622.442	-2189.11	1	2275.89	-74.1277	7.33102E-008	1.39965	8
	17	114	10078.1	621.861	-2197.02	1	2283.34	-74.196	4.95187E-008	1.29967	8
	18	123	10078.1	624.413	-2207.87	1	2294.47	-74.2085	9.42079E-008	1.19977	8
	19	131	10078.1	623.48	-2219.21	1	2305.13	-74.3075	8.82374E-008	1.09972	8
	20	142	10078.1	621.811	-2232.42	1	2317.4	-74.4355	7.16641E-008	0.99974	8
	21	153	10078.1	623.54	-2248.38	1	2333.24	-74.4998	7.43853E-008	0.899783	8
	22	159	10078.1	624.896	-2268.33	1	2352.83	-74.5978	4.90687E-008	0.79982	8
	23	165	10078.1	624.75	-2288.61	1	2372.35	-74.7313	7.29876E-008	0.699898	8
	24	171	10078.1	627.994	-2307.47	1	2391.4	-74.7753	3.52008E-008	0.599881	8
	25	177	10078.1	626.568	-2336.67	1	2419.22	-74.9895	7.60842E-008	0.499982	8
	26	183	10078.1	627.015	-2363.57	1	2445.33	-75.1426	6.96453E-008	0.40002	8
	27	188	10078.1	629.715	-2392.59	1	2474.08	-75.2545	6.10079E-008	0.300076	8
	28	194	10078.1	628.497	-2422.56	1	2502.76	-75.4561	5.52307E-008	0.200104	8
	29	200	10078.1	631.272	-2455.49	1	2535.34	-75.5823	7.69186E-008	0.100198	8
	30	206	10078.1	632.975	-2488.75	1	2567.98	-75.7302	8.4082E-008	0.000236	8
	31	212	10078.1	639.884	-2523.08	1	2602.96	-75.7691	7.20097E-008	-0.100011	8
	32	217	10078.1	645.009	-2557.3	1	2637.39	-75.8439	6.36578E-008	-0.199959	8
	33	223	10078.1	650.899	-2602.18	1	2682.35	-75.9564	7.08583E-008	-0.299922	8
	34	229	10078.1	656.712	-2646.76	1	2727.01	-76.0652	7.63687E-008	-0.399867	8
	35	235	10078.1	653.449	-2704.08	1	2781.92	-76.4148	6.92908E-008	-0.499856	8
	36	241	10078.1	654.111	-2743.45	1	2820.35	-76.5896	7.60367E-008	-0.599784	8
	37	247	10078.1	644.256	-2785.08	1	2858.63	-76.9752	6.79763E-008	-0.699766	8
	38	253	10078.1	639.409	-2823	1	2894.51	-77.2378	6.5626E-008	-0.799692	8
	39	259	10078.1	637.941	-2856.02	1	2926.4	-77.4087	7.94725E-008	-0.899666	8
	40	264	10078.1	642.374	-2886.49	1	2957.11	-77.4536	5.14641E-008	-0.99965	8
	41	269	10078.1	641.207	-2915.45	1	2985.13	-77.5962	8.37211E-008	-1.09967	8
	42	275	10078.1	637.812	-2952.11	1	3020.23	-77.8085	8.79132E-008	-1.19962	8
	43	281	10078.1	637.162	-2976.25	1	3043.69	-77.9164	5.24734E-008	-1.29958	8
	44	286	10078.1	638.273	-3009.16	1	3076.11	-78.0245	7.87223E-008	-1.39953	8
	45	292	10078.1	641.634	-3034.11	1	3101.22	-78.0594	4.95576E-008	-1.49951	8
	46	298	10078.1	643.371	-3062.56	1	3129.41	-78.136	7.85913E-008	-1.5994	8
	47	303	10078.1	644.548	-3088.84	1	3155.38	-78.2132	5.95133E-008	-1.69938	8
	48	309	10078.1	648.011	-3108.8	1	3175.61	-78.2256	7.51687E-008	-1.7993	8
	49	314	10078.1	652.885	-3130.07	1	3197.44	-78.2179	7.63844E-008	-1.89928	8
	50	319	10078.1	660.799	-3143.89	1	3212.58	-78.1301	7.12675E-008	-1.99922	8
	51	325	10078.1	667.845	-3152.71	1	3222.67	-78.0397	8.72587E-008	-2.09921	8
	52	330	10078.1	670.232	-3152.35	1	3222.81	-77.9969	8.83216E-008	-2.19916	8
	53	336	10078.1	679.249	-3145.93	1	3218.42	-77.8161	6.61725E-008	-2.29918	8
	54	342	10078.1	678.721	-3140.44	1	3212.95	-77.8047	5.42339E-008	-2.39913	8
	55	348	10078.1	681.98	-3137.89	1	3211.14	-77.7382	9.70089E-008	-2.49904	8
	56	353	10078.1	683.101	-3132.01	1	3205.64	-77.6963	7.70715E-008	-2.599	8
	57	358	10078.1	680.893	-3127.71	1	3200.97	-77.7185	9.5388E-008	-2.69897	8
	58	364	10078.1	680.444	-3123.53	1	3196.79	-77.7104	8.59928E-008	-2.79896	8
	59	369	10078.1	684.796	-3118.87	1	3193.16	-77.6163	8.59142E-008	-2.89886	8
	60	374	10078.1	684.493	-3114.58	1	3188.91	-77.6051	4.37743E-008	-2.99888	8

File: C0_MS_pH10_044a.DTA
EXPLAIN
TAG	MOTTSCHOTTKY
TITLE	LABEL	Mott-Schottky	Test &Identifier
DATE	LABEL	30-10-2009	Date
TIME	LABEL	0:24:58	Time
NOTES	NOTES	2	&Notes...
	Si/SiO2
	T=25.3oC
PSTAT	PSTAT	REF600-07089	Potentiostat
VINIT	POTEN	-3.00000E+000	F	Initial &Voltage (V)
VFINAL	POTEN	3.00000E+000	F	Final &Voltage (V)
VSTEP	QUANT	1.00000E-001	&Voltage Step (V)
FREQINIT	QUANT	5.00000E+002	Fre&quency (Hz)
VAC	QUANT	1.00000E+001	AC &Voltage (mV rms)
AREA	QUANT	1.00000E-002	&Area (cm^2)
CONDIT	TWOPARAM	T	2.00000E+001	-3.00000E+000	Conditionin&g	Time(s)	E(V)
DELAY	TWOPARAM	T	2.50000E-001	0.00000E+000	Init. De&lay	Time(s)	Stab.(mV/s)
SPEED	SELECTOR	1	&Optimize for:
ZGUESS	QUANT	1.00000E+002	E&stimated Z (ohms)
OCVCURVE	TABLE	1
	Pt	T	Vf	Vm	Ach	Over
	#	s	V vs. Ref.	V	V	bits
	0	0.258333	-2.05228E+000	0.00000E+000	1.31331E-004	.............
EOC	QUANT	-2.05228	Open Circuit (V)
PSTATMODEL	IQUANT	4	Pstat Model
PSTATSECTION	LABEL	REF600-07089	Pstat Section
PSTATSERIALNO	LABEL	07089	Pstat Serial Number
CTRLMODE	IQUANT	1	Control Mode
IESTAB	IQUANT	0	I/E Stability
CASPEED	IQUANT	2	Control Amp Speed
CONVENTION	IQUANT	1	Current Convention
ICHRANGE	IQUANT	2	Ich Range
ICHRANGEMODE	TOGGLE	F	Ich Auto Range
ICHOFFSETENABLE	TOGGLE	T	Ich Offset Enable
ICHOFFSET	QUANT	0	Ich Offset (V)
ICHFILTER	IQUANT	3	Ich Filter
VCHRANGE	IQUANT	2	Vch Range
VCHRANGEMODE	TOGGLE	F	Vch Auto Range
VCHOFFSETENABLE	TOGGLE	T	Vch Offset Enable
VCHOFFSET	QUANT	0	Vch Offset (V)
VCHFILTER	IQUANT	3	Vch Filter
ACHRANGE	IQUANT	2	Ach Range
ACHOFFSETENABLE	TOGGLE	F	Ach Offset Enable
ACHOFFSET	QUANT	0	Ach Offset (V)
ACHFILTER	IQUANT	2	Ach Filter
IERANGELOWERLIMIT	IQUANT	1	I/E Range Lower Limit
IERANGEMODE	TOGGLE	F	I/E AutoRange
IERANGE	IQUANT	10	I/E Range
POSFEEDENABLE	TOGGLE	F	Positive Feedback IR Comp
POSFEEDRESISTANCE	QUANT	0	Positive Feedback Resistance (ohm)
ACHSELECT	IQUANT	0	Ach Select
CABLEID	IQUANT	14	Cable ID
DCCALDATE	LABEL	14-4-2009	DC Calibration Date
ACCALDATE	LABEL	14-4-2009	AC Calibration Date
THERMOSELECT	IQUANT	0	Thermo Select
FRAMEWORKVERSION	QUANT	5.5	Framework Version
INSTRUMENTVERSION	LABEL	2.00	Instrument Version
ZCURVE	TABLE
	Pt	Time	Freq	Zreal	Zimag	Zsig	Zmod	Zphz	Idc	Vdc	IERange
	#	s	Hz	ohm	ohm	V	ohm	°	A	V	#
	0	11	495.793	2374.71	-55656.7	1	55707.3	-87.5568	9.65062E-010	-2.99887	6
	1	16	495.793	2394.14	-54027.6	1	54080.6	-87.4627	7.56651E-010	-2.89887	6
	2	24	495.793	2432.08	-53322.2	1	53377.6	-87.3885	8.74743E-010	-2.79897	6
	3	30	495.793	2510.19	-53128.9	1	53188.2	-87.2949	7.77348E-010	-2.699	6
	4	36	495.793	2594.85	-53092.3	1	53155.7	-87.2019	6.56959E-010	-2.59903	6
	5	41	495.793	2699.52	-53144.5	1	53213	-87.0921	5.4679E-010	-2.49908	6
	6	47	495.793	2809.25	-53250.8	1	53324.8	-86.9802	5.42929E-010	-2.39911	6
	7	52	495.793	2912.36	-53475.1	1	53554.4	-86.8826	5.29903E-010	-2.29918	6
	8	58	495.793	2965.2	-53817.7	1	53899.4	-86.8464	5.26309E-010	-2.19919	6
	9	63	495.793	2918.86	-54230.4	1	54308.9	-86.9191	5.27434E-010	-2.09923	6
	10	69	495.793	2788.38	-54577.7	1	54648.9	-87.0753	4.99025E-010	-1.99925	6
	11	74	495.793	2611.69	-54734.8	1	54797.1	-87.2682	4.979E-010	-1.89931	6
	12	80	495.793	2436.93	-54665.9	1	54720.2	-87.4475	4.77771E-010	-1.79932	6
	13	86	495.793	2301.23	-54447.8	1	54496.5	-87.5798	4.74427E-010	-1.69938	6
	14	91	495.793	2187.91	-54129.8	1	54174	-87.6854	4.9093E-010	-1.59944	6
	15	97	495.793	2115.44	-53668.5	1	53710.2	-87.7428	4.04716E-010	-1.49951	6
	16	103	495.793	2079.57	-53135.9	1	53176.6	-87.7588	4.78451E-010	-1.39954	6
	17	109	495.793	2072.05	-52562.6	1	52603.4	-87.7425	4.3061E-010	-1.29958	6
	18	114	495.793	2072.62	-51974.1	1	52015.4	-87.7164	4.28391E-010	-1.19964	6
	19	120	495.793	2091.39	-51359.9	1	51402.5	-87.6682	3.94879E-010	-1.09969	6
	20	126	495.793	2136.52	-50708.2	1	50753.2	-87.5873	3.53382E-010	-0.99964	6
	21	131	495.793	2213.92	-49976.5	1	50025.5	-87.4635	4.3997E-010	-0.899675	6
	22	137	495.793	2329.64	-49133.1	1	49188.3	-87.2854	4.16797E-010	-0.799693	6
	23	142	495.793	2382.9	-48154.3	1	48213.2	-87.167	4.74156E-009	-0.699771	7
	24	148	495.793	2343.19	-47165.9	1	47224.1	-87.1559	5.1058E-009	-0.599792	7
	25	154	495.793	2229.29	-46254.6	1	46308.3	-87.2407	4.50922E-009	-0.49986	7
	26	160	495.793	2090.59	-45464.9	1	45512.9	-87.3672	4.51849E-009	-0.399887	7
	27	166	495.793	1999.9	-44778.3	1	44823	-87.4427	5.20988E-009	-0.299949	7
	28	171	495.793	1946.79	-44141.5	1	44184.4	-87.4747	4.79273E-009	-0.199975	7
	29	176	495.793	1909.52	-43521	1	43562.9	-87.4877	5.06448E-009	-0.100031	7
	30	182	495.793	1895.5	-42908.9	1	42950.8	-87.4706	4.54596E-009	0.000203	7
	31	187	495.793	1880.13	-42293.7	1	42335.4	-87.4546	4.40863E-009	0.100174	7
	32	192	495.793	1871.5	-41680.3	1	41722.3	-87.4291	4.44261E-009	0.200097	7
	33	198	495.793	1854.25	-41100.1	1	41141.9	-87.4168	4.8303E-009	0.300077	7
	34	203	495.793	1849.09	-40516.6	1	40558.8	-87.387	4.75985E-009	0.400009	7
	35	209	495.793	1838.75	-39977.8	1	40020.1	-87.3666	5.22409E-009	0.499972	7
	36	215	495.793	1830.24	-39491.9	1	39534.3	-87.3465	4.99524E-009	0.599903	7
	37	220	495.793	1823.78	-39038.2	1	39080.7	-87.3252	5.25616E-009	0.699879	7
	38	226	495.793	1821.44	-38631.5	1	38674.4	-87.3006	5.25179E-009	0.799841	7
	39	232	495.793	1816.83	-38281.3	1	38324.4	-87.2828	5.82803E-009	0.89979	7
	40	237	495.793	1816.21	-37971.3	1	38014.7	-87.2616	5.90593E-009	0.99974	7
	41	243	495.793	1816.57	-37699.6	1	37743.4	-87.2413	5.52503E-009	1.09971	7
	42	249	495.793	1802.99	-37476.8	1	37520.1	-87.2456	5.68373E-009	1.19975	7
	43	254	495.793	1798.59	-37264.4	1	37307.8	-87.2367	5.35548E-009	1.29969	7
	44	260	495.793	1801.31	-37086.9	1	37130.6	-87.2193	5.20657E-009	1.39965	7
	45	266	495.793	1801.62	-36934.1	1	36978	-87.2074	5.92539E-009	1.49962	7
	46	272	495.793	1792.81	-36799.7	1	36843.4	-87.2109	5.15902E-009	1.59957	7
	47	277	495.793	1795.25	-36673	1	36716.9	-87.1974	5.31793E-009	1.69945	7
	48	283	495.793	1795.23	-36565.9	1	36609.9	-87.1893	5.4894E-009	1.79936	7
	49	289	495.793	1790.47	-36472.7	1	36516.7	-87.1896	5.60376E-009	1.89936	7
	50	294	495.793	1785.63	-36386.6	1	36430.4	-87.1905	5.32464E-009	1.99931	7
	51	300	495.793	1789.34	-36308.9	1	36353	-87.1787	5.84905E-009	2.09927	7
	52	306	495.793	1786.02	-36238.4	1	36282.4	-87.1784	5.21001E-009	2.19924	7
	53	312	495.793	1784.44	-36179.4	1	36223.3	-87.1764	5.95238E-009	2.29921	7
	54	318	495.793	1789.68	-36121.1	1	36165.4	-87.1635	6.63036E-009	2.39917	7
	55	324	495.793	1785.97	-36061.1	1	36105.3	-87.1647	5.68343E-009	2.49913	7
	56	329	495.793	1785.62	-36021.4	1	36065.7	-87.1621	6.07805E-009	2.59907	7
	57	335	495.793	1788.56	-35974.3	1	36018.7	-87.1537	6.13287E-009	2.69905	7
	58	341	495.793	1785.05	-35934.4	1	35978.7	-87.1562	5.97924E-009	2.79899	7
	59	347	495.793	1782.23	-35898.7	1	35942.9	-87.1578	6.03488E-009	2.89895	7
	60	353	495.793	1785.3	-35863.6	1	35908.1	-87.1502	6.01969E-009	2.99888	7