Folder: Scientific_Analysis_MN/OriginPro/EIS (part 5)

File: C0_MS_pH7_03a.DTA
EXPLAIN
TAG	MOTTSCHOTTKY
TITLE	LABEL	Mott-Schottky	Test &Identifier
DATE	LABEL	29-10-2009	Date
TIME	LABEL	20:51:41	Time
NOTES	NOTES	2	&Notes...
	Si/SiO2
	T=25.3oC
PSTAT	PSTAT	REF600-07089	Potentiostat
VINIT	POTEN	-3.00000E+000	F	Initial &Voltage (V)
VFINAL	POTEN	3.00000E+000	F	Final &Voltage (V)
VSTEP	QUANT	1.00000E-001	&Voltage Step (V)
FREQINIT	QUANT	1.00000E+003	Fre&quency (Hz)
VAC	QUANT	1.00000E+001	AC &Voltage (mV rms)
AREA	QUANT	1.00000E-002	&Area (cm^2)
CONDIT	TWOPARAM	T	2.00000E+001	-3.00000E+000	Conditionin&g	Time(s)	E(V)
DELAY	TWOPARAM	T	2.50000E-001	0.00000E+000	Init. De&lay	Time(s)	Stab.(mV/s)
SPEED	SELECTOR	1	&Optimize for:
ZGUESS	QUANT	1.00000E+002	E&stimated Z (ohms)
OCVCURVE	TABLE	1
	Pt	T	Vf	Vm	Ach	Over
	#	s	V vs. Ref.	V	V	bits
	0	0.258333	-2.05269E+000	0.00000E+000	4.67886E-004	.............
EOC	QUANT	-2.05269	Open Circuit (V)
PSTATMODEL	IQUANT	4	Pstat Model
PSTATSECTION	LABEL	REF600-07089	Pstat Section
PSTATSERIALNO	LABEL	07089	Pstat Serial Number
CTRLMODE	IQUANT	1	Control Mode
IESTAB	IQUANT	0	I/E Stability
CASPEED	IQUANT	2	Control Amp Speed
CONVENTION	IQUANT	1	Current Convention
ICHRANGE	IQUANT	2	Ich Range
ICHRANGEMODE	TOGGLE	F	Ich Auto Range
ICHOFFSETENABLE	TOGGLE	T	Ich Offset Enable
ICHOFFSET	QUANT	0	Ich Offset (V)
ICHFILTER	IQUANT	3	Ich Filter
VCHRANGE	IQUANT	2	Vch Range
VCHRANGEMODE	TOGGLE	F	Vch Auto Range
VCHOFFSETENABLE	TOGGLE	T	Vch Offset Enable
VCHOFFSET	QUANT	0	Vch Offset (V)
VCHFILTER	IQUANT	3	Vch Filter
ACHRANGE	IQUANT	2	Ach Range
ACHOFFSETENABLE	TOGGLE	F	Ach Offset Enable
ACHOFFSET	QUANT	0	Ach Offset (V)
ACHFILTER	IQUANT	1	Ach Filter
IERANGELOWERLIMIT	IQUANT	1	I/E Range Lower Limit
IERANGEMODE	TOGGLE	F	I/E AutoRange
IERANGE	IQUANT	10	I/E Range
POSFEEDENABLE	TOGGLE	F	Positive Feedback IR Comp
POSFEEDRESISTANCE	QUANT	0	Positive Feedback Resistance (ohm)
ACHSELECT	IQUANT	0	Ach Select
CABLEID	IQUANT	14	Cable ID
DCCALDATE	LABEL	14-4-2009	DC Calibration Date
ACCALDATE	LABEL	14-4-2009	AC Calibration Date
THERMOSELECT	IQUANT	0	Thermo Select
FRAMEWORKVERSION	QUANT	5.5	Framework Version
INSTRUMENTVERSION	LABEL	2.00	Instrument Version
ZCURVE	TABLE
	Pt	Time	Freq	Zreal	Zimag	Zsig	Zmod	Zphz	Idc	Vdc	IERange
	#	s	Hz	ohm	ohm	V	ohm	°	A	V	#
	0	10	998.26	1442.43	-29063.3	1	29099	-87.1587	1.38344E-008	-2.99889	7
	1	16	998.26	1663.2	-28248.4	1	28297.3	-86.6304	1.00977E-008	-2.89891	7
	2	22	998.26	1503.71	-27987.8	1	28028.1	-86.9246	1.32657E-008	-2.79898	7
	3	28	998.26	1786.52	-28002.9	1	28059.8	-86.3496	7.8285E-009	-2.69902	7
	4	34	998.26	1798.39	-27991.4	1	28049.1	-86.3239	3.29382E-009	-2.59906	7
	5	40	998.26	1881	-27881.2	1	27944.6	-86.1404	9.12365E-009	-2.49908	7
	6	46	998.26	2024.24	-28080.4	1	28153.3	-85.8768	1.61186E-009	-2.39913	7
	7	52	998.26	1905.66	-27945	1	28009.9	-86.0989	1.23236E-008	-2.29918	7
	8	58	998.26	1900.81	-28060.6	1	28124.9	-86.1247	2.25262E-009	-2.19921	7
	9	64	998.26	2023.15	-28171.1	1	28243.6	-85.8923	4.68062E-009	-2.09925	7
	10	70	998.26	1924.58	-28269.1	1	28334.5	-86.1053	1.11837E-008	-1.99925	7
	11	76	998.26	2087.24	-28368.7	1	28445.4	-85.792	7.1812E-009	-1.8993	7
	12	81	998.26	1803.79	-28655.4	1	28712.1	-86.3981	-2.66478E-010	-1.79934	7
	13	87	998.26	1786.54	-28693.9	1	28749.5	-86.4372	3.64203E-009	-1.69938	7
	14	93	998.26	1775.51	-28649.8	1	28704.8	-86.4538	8.18601E-009	-1.59944	7
	15	99	998.26	1638.07	-28428.2	1	28475.3	-86.7022	2.45123E-009	-1.49953	7
	16	105	998.26	1704.75	-28121.5	1	28173.1	-86.5309	1.84486E-009	-1.39957	7
	17	111	998.26	1692.54	-28106.5	1	28157.5	-86.5539	4.39057E-009	-1.29959	7
	18	117	998.26	1618.27	-27651.2	1	27698.5	-86.6506	1.01933E-008	-1.19964	7
	19	123	998.26	1681.31	-27292.3	1	27344.1	-86.4748	3.94432E-009	-1.0997	7
	20	129	998.26	1600.28	-27177.6	1	27224.7	-86.6302	4.57501E-009	-0.99965	7
	21	135	998.26	1640.48	-26735.5	1	26785.8	-86.4888	6.28726E-009	-0.899686	7
	22	141	998.26	1620.51	-26476.4	1	26526	-86.4976	3.97621E-009	-0.799702	7
	23	147	998.26	1663.94	-26289.8	1	26342.4	-86.3784	2.10691E-009	-0.699785	7
	24	153	998.26	1709.06	-25845.3	1	25901.7	-86.2167	1.21563E-009	-0.599797	7
	25	159	998.26	1728.34	-25406.6	1	25465.3	-86.1083	8.63928E-009	-0.49984	7
	26	165	998.26	1689.94	-24941.1	1	24998.3	-86.1237	7.96512E-009	-0.399872	7
	27	170	998.26	1724.58	-24403.1	1	24464	-85.9576	2.36073E-009	-0.299946	7
	28	177	998.26	1717.36	-23940.8	1	24002.4	-85.897	1.19279E-008	-0.199942	7
	29	182	998.26	1563.87	-23591.3	1	23643	-86.2074	3.83388E-008	-0.100015	8
	30	188	998.26	1547.86	-23142.9	1	23194.6	-86.1736	3.48813E-008	0.00021	8
	31	195	998.26	1602.4	-22763.1	1	22819.4	-85.9733	7.19307E-009	0.100183	7
	32	201	998.26	1572.66	-22516.5	1	22571.4	-86.0047	1.06918E-008	0.200114	7
	33	206	998.26	1511.27	-22227.6	1	22278.9	-86.1104	1.3343E-008	0.300097	7
	34	212	998.26	1588.3	-21904.9	1	21962.4	-85.8528	8.36615E-009	0.400025	7
	35	218	998.26	1525.58	-21519.4	1	21573.4	-85.9449	7.7125E-009	0.49998	7
	36	223	998.26	1505.46	-21284.8	1	21338	-85.9542	3.4792E-009	0.599908	7
	37	229	998.26	1522.11	-21009.6	1	21064.6	-85.8562	2.90733E-009	0.699894	7
	38	235	998.26	1526.29	-20638.9	1	20695.3	-85.7706	4.84119E-009	0.799845	7
	39	241	998.26	1487.73	-20379.1	1	20433.3	-85.8247	7.54347E-009	0.8998	7
	40	246	998.26	1404.79	-20290.4	1	20339	-86.0395	7.57611E-009	0.99976	7
	41	253	998.26	1479.04	-19937.6	1	19992.4	-85.7574	1.18744E-008	1.09975	7
	42	259	998.26	1458.73	-19896	1	19949.4	-85.8067	1.28129E-008	1.19979	7
	43	265	998.26	1467.09	-19665.6	1	19720.2	-85.7335	7.49694E-009	1.29971	7
	44	271	998.26	1406.28	-19618.8	1	19669.2	-85.9001	1.36305E-008	1.39969	7
	45	276	998.26	1440.9	-19440.2	1	19493.5	-85.761	1.24825E-009	1.49964	7
	46	281	998.26	1458.56	-19248.4	1	19303.6	-85.6667	1.25098E-008	1.59961	7
	47	287	998.26	1507.02	-19192.2	1	19251.3	-85.5102	1.25901E-008	1.69949	7
	48	292	998.26	1455.57	-19188.8	1	19243.9	-85.6621	9.01468E-009	1.79939	7
	49	298	998.26	1453.32	-19065.3	1	19120.6	-85.6409	2.85759E-009	1.89938	7
	50	303	998.26	1450.88	-19054.6	1	19109.7	-85.6457	1.15396E-008	1.99935	7
	51	308	998.26	1486.54	-19037.5	1	19095.4	-85.5351	2.21878E-009	2.0993	7
	52	314	998.26	1513.22	-18933.1	1	18993.5	-85.4304	6.08789E-009	2.19926	7
	53	319	998.26	1426.8	-18871.1	1	18925	-85.6762	1.1879E-008	2.29926	7
	54	324	998.26	1445.77	-18848.2	1	18903.5	-85.6136	4.59781E-010	2.39919	7
	55	330	998.26	1461.54	-18863.7	1	18920.2	-85.5696	1.19929E-008	2.49918	7
	56	335	998.26	1457.66	-18843.9	1	18900.2	-85.5767	9.34016E-009	2.59909	7
	57	340	998.26	1504.52	-18751.9	1	18812.1	-85.4128	5.10312E-009	2.69907	7
	58	346	998.26	1466.04	-18710.7	1	18768.1	-85.5199	2.72719E-009	2.79903	7
	59	351	998.26	1498.63	-18707	1	18766.9	-85.4198	-2.04916E-009	2.89898	7
	60	357	998.26	1432.14	-18688.9	1	18743.7	-85.618	1.03888E-008	2.99895	7

File: C0_MS_pH7_04.DTA
EXPLAIN
TAG	MOTTSCHOTTKY
TITLE	LABEL	Mott-Schottky	Test &Identifier
DATE	LABEL	29-10-2009	Date
TIME	LABEL	20:59:12	Time
NOTES	NOTES	2	&Notes...
	Si/SiO2
	T=25.3oC
PSTAT	PSTAT	REF600-07089	Potentiostat
VINIT	POTEN	3.00000E+000	F	Initial &Voltage (V)
VFINAL	POTEN	-3.00000E+000	F	Final &Voltage (V)
VSTEP	QUANT	1.00000E-001	&Voltage Step (V)
FREQINIT	QUANT	5.00000E+002	Fre&quency (Hz)
VAC	QUANT	1.00000E+001	AC &Voltage (mV rms)
AREA	QUANT	1.00000E-002	&Area (cm^2)
CONDIT	TWOPARAM	T	2.00000E+001	3.00000E+000	Conditionin&g	Time(s)	E(V)
DELAY	TWOPARAM	T	2.50000E-001	0.00000E+000	Init. De&lay	Time(s)	Stab.(mV/s)
SPEED	SELECTOR	1	&Optimize for:
ZGUESS	QUANT	1.00000E+002	E&stimated Z (ohms)
OCVCURVE	TABLE	1
	Pt	T	Vf	Vm	Ach	Over
	#	s	V vs. Ref.	V	V	bits
	0	0.258333	3.68528E+000	0.00000E+000	2.47265E-005	.............
EOC	QUANT	3.68528	Open Circuit (V)
PSTATMODEL	IQUANT	4	Pstat Model
PSTATSECTION	LABEL	REF600-07089	Pstat Section
PSTATSERIALNO	LABEL	07089	Pstat Serial Number
CTRLMODE	IQUANT	1	Control Mode
IESTAB	IQUANT	0	I/E Stability
CASPEED	IQUANT	2	Control Amp Speed
CONVENTION	IQUANT	1	Current Convention
ICHRANGE	IQUANT	2	Ich Range
ICHRANGEMODE	TOGGLE	F	Ich Auto Range
ICHOFFSETENABLE	TOGGLE	T	Ich Offset Enable
ICHOFFSET	QUANT	0	Ich Offset (V)
ICHFILTER	IQUANT	3	Ich Filter
VCHRANGE	IQUANT	2	Vch Range
VCHRANGEMODE	TOGGLE	F	Vch Auto Range
VCHOFFSETENABLE	TOGGLE	T	Vch Offset Enable
VCHOFFSET	QUANT	0	Vch Offset (V)
VCHFILTER	IQUANT	3	Vch Filter
ACHRANGE	IQUANT	2	Ach Range
ACHOFFSETENABLE	TOGGLE	F	Ach Offset Enable
ACHOFFSET	QUANT	0	Ach Offset (V)
ACHFILTER	IQUANT	1	Ach Filter
IERANGELOWERLIMIT	IQUANT	1	I/E Range Lower Limit
IERANGEMODE	TOGGLE	F	I/E AutoRange
IERANGE	IQUANT	10	I/E Range
POSFEEDENABLE	TOGGLE	F	Positive Feedback IR Comp
POSFEEDRESISTANCE	QUANT	0	Positive Feedback Resistance (ohm)
ACHSELECT	IQUANT	0	Ach Select
CABLEID	IQUANT	14	Cable ID
DCCALDATE	LABEL	14-4-2009	DC Calibration Date
ACCALDATE	LABEL	14-4-2009	AC Calibration Date
THERMOSELECT	IQUANT	0	Thermo Select
FRAMEWORKVERSION	QUANT	5.5	Framework Version
INSTRUMENTVERSION	LABEL	2.00	Instrument Version
ZCURVE	TABLE
	Pt	Time	Freq	Zreal	Zimag	Zsig	Zmod	Zphz	Idc	Vdc	IERange
	#	s	Hz	ohm	ohm	V	ohm	°	A	V	#
	0	13	495.793	1805.29	-37157	1	37200.8	-87.2184	1.25234E-008	2.99893	7
	1	19	495.793	1810.05	-37199.5	1	37243.5	-87.2143	1.0731E-008	2.899	7
	2	25	495.793	1810.27	-37242.7	1	37286.7	-87.2172	8.72607E-009	2.79904	7
	3	31	495.793	1811.48	-37290.4	1	37334.3	-87.2189	7.4495E-009	2.69908	7
	4	37	495.793	1808.89	-37347.6	1	37391.4	-87.2271	6.83376E-009	2.59911	7
	5	43	495.793	1816.08	-37412.5	1	37456.6	-87.2209	6.61729E-009	2.49915	7
	6	49	495.793	1825.03	-37484.9	1	37529.3	-87.2126	7.00935E-009	2.3992	7
	7	55	495.793	1819.03	-37560	1	37604	-87.2273	6.41008E-009	2.29924	7
	8	61	495.793	1819.45	-37645.2	1	37689.1	-87.233	6.43344E-009	2.19925	7
	9	66	495.793	1822.87	-37736.2	1	37780.2	-87.2344	6.22797E-009	2.09931	7
	10	72	495.793	1825.65	-37837	1	37881	-87.2376	7.34717E-009	1.99933	7
	11	78	495.793	1823.28	-37961	1	38004.7	-87.2502	6.59205E-009	1.89939	7
	12	84	495.793	1827.87	-38096.6	1	38140.4	-87.2531	6.78616E-009	1.79938	7
	13	90	495.793	1831	-38243.6	1	38287.4	-87.2589	5.6775E-009	1.69947	7
	14	96	495.793	1840.48	-38420.6	1	38464.7	-87.2574	6.43009E-009	1.59959	7
	15	102	495.793	1841.5	-38622.9	1	38666.8	-87.2703	5.5893E-009	1.49964	7
	16	108	495.793	1839.06	-38851.5	1	38895	-87.2899	5.56015E-009	1.39967	7
	17	114	495.793	1842.21	-39124.5	1	39167.8	-87.3042	6.3243E-009	1.2997	7
	18	120	495.793	1849.56	-39420.2	1	39463.6	-87.3137	6.06642E-009	1.19976	7
	19	126	495.793	1863.64	-39765.7	1	39809.3	-87.3168	6.13885E-009	1.09972	7
	20	132	495.793	1873.54	-40157.3	1	40201	-87.3288	6.17051E-009	0.99975	7
	21	137	495.793	1881.03	-40602.9	1	40646.4	-87.3475	5.91781E-009	0.899795	7
	22	143	495.793	1876.8	-41099.9	1	41142.7	-87.3854	6.52344E-009	0.799846	7
	23	149	495.793	1898.99	-41642.3	1	41685.6	-87.389	6.47717E-009	0.699888	7
	24	155	495.793	1909.29	-42211	1	42254.2	-87.4102	6.3152E-009	0.599906	7
	25	161	495.793	1917.58	-42818.4	1	42861.3	-87.4358	6.27667E-009	0.499965	7
	26	167	495.793	1938.21	-43440.3	1	43483.6	-87.4453	6.51332E-009	0.400022	7
	27	173	495.793	1953.37	-44072	1	44115.3	-87.4622	6.10256E-009	0.300076	7
	28	179	495.793	1966.07	-44700.8	1	44744	-87.4816	6.24509E-009	0.200102	7
	29	185	495.793	1991.26	-45326.2	1	45369.9	-87.4845	6.22757E-009	0.10018	7
	30	192	495.793	2033.55	-45978.3	1	46023.2	-87.4675	6.37501E-009	0.000209	7
	31	198	495.793	2111.87	-46647.8	1	46695.6	-87.4078	6.33037E-009	-0.100029	7
	32	204	495.793	2258.61	-47414.2	1	47467.9	-87.2727	6.26988E-009	-0.199974	7
	33	210	495.793	2394.73	-48301.3	1	48360.6	-87.1617	6.24584E-009	-0.299944	7
	34	216	495.793	2469.46	-49291.4	1	49353.2	-87.1319	6.13835E-009	-0.399883	7
	35	221	495.793	2446.86	-50307.6	1	50367	-87.2154	5.75805E-009	-0.499857	7
	36	227	495.793	2339.9	-51242.3	1	51295.7	-87.3855	6.58835E-010	-0.599795	6
	37	233	495.793	2227.51	-52033.5	1	52081.1	-87.5487	6.69282E-010	-0.699781	6
	38	239	495.793	2164.68	-52731.7	1	52776.1	-87.6493	6.40222E-010	-0.799715	6
	39	244	495.793	2147.97	-53371.5	1	53414.7	-87.6953	6.54287E-010	-0.899689	6
	40	250	495.793	2134.73	-53974.6	1	54016.8	-87.7351	6.12265E-010	-0.99964	6
	41	256	495.793	2137.82	-54574.2	1	54616.1	-87.7567	5.14887E-010	-1.0997	6
	42	261	495.793	2144.04	-55137.4	1	55179.1	-87.7732	6.21157E-010	-1.19965	6
	43	267	495.793	2156.35	-55669.4	1	55711.1	-87.7818	5.50877E-010	-1.29959	6
	44	272	495.793	2209.84	-56145.6	1	56189	-87.746	5.38766E-010	-1.39956	6
	45	278	495.793	2264.96	-56508.2	1	56553.6	-87.7047	5.91302E-010	-1.49952	6
	46	283	495.793	2271.85	-56795.5	1	56840.9	-87.7094	4.90641E-010	-1.59944	6
	47	289	495.793	2252.46	-57039.2	1	57083.7	-87.7386	5.18792E-010	-1.69939	6
	48	295	495.793	2223.28	-57191.5	1	57234.7	-87.7738	5.18121E-010	-1.79933	6
	49	300	495.793	2182.57	-57313.9	1	57355.4	-87.8192	4.94633E-010	-1.89932	6
	50	305	495.793	2135.08	-57352.3	1	57392.1	-87.868	4.58958E-010	-1.99926	6
	51	310	495.793	2086.41	-57358.5	1	57396.4	-87.9168	3.69078E-010	-2.09925	6
	52	316	495.793	2038	-57342.5	1	57378.7	-87.9645	4.07294E-010	-2.19921	6
	53	322	495.793	2006.15	-57300.2	1	57335.3	-87.9948	3.57248E-010	-2.29919	6
	54	327	495.793	1982.39	-57283.1	1	57317.4	-88.018	3.9805E-010	-2.39913	6
	55	332	495.793	1961.46	-57251.3	1	57284.9	-88.0378	3.55014E-010	-2.49909	6
	56	338	495.793	1947.46	-57224.7	1	57257.8	-88.0509	3.6211E-010	-2.59905	6
	57	343	495.793	1932.6	-57183.2	1	57215.8	-88.0643	3.22143E-010	-2.69901	6
	58	348	495.793	1924.17	-57141.6	1	57173.9	-88.0714	3.22432E-010	-2.79899	6
	59	353	495.793	1911.63	-57098.1	1	57130.1	-88.0825	3.99887E-010	-2.89891	6
	60	359	495.793	1922.31	-57060.3	1	57092.7	-88.0705	3.49864E-010	-2.9989	6

File: C0_MS_pH7_04a.DTA
EXPLAIN
TAG	MOTTSCHOTTKY
TITLE	LABEL	Mott-Schottky	Test &Identifier
DATE	LABEL	29-10-2009	Date
TIME	LABEL	21:06:20	Time
NOTES	NOTES	2	&Notes...
	Si/SiO2
	T=25.3oC
PSTAT	PSTAT	REF600-07089	Potentiostat
VINIT	POTEN	3.00000E+000	F	Initial &Voltage (V)
VFINAL	POTEN	-3.00000E+000	F	Final &Voltage (V)
VSTEP	QUANT	1.00000E-001	&Voltage Step (V)
FREQINIT	QUANT	5.00000E+002	Fre&quency (Hz)
VAC	QUANT	1.00000E+001	AC &Voltage (mV rms)
AREA	QUANT	1.00000E-002	&Area (cm^2)
CONDIT	TWOPARAM	T	2.00000E+001	3.00000E+000	Conditionin&g	Time(s)	E(V)
DELAY	TWOPARAM	T	2.50000E-001	0.00000E+000	Init. De&lay	Time(s)	Stab.(mV/s)
SPEED	SELECTOR	1	&Optimize for:
ZGUESS	QUANT	1.00000E+002	E&stimated Z (ohms)
OCVCURVE	TABLE	1
	Pt	T	Vf	Vm	Ach	Over
	#	s	V vs. Ref.	V	V	bits
	0	0.258333	3.67175E+000	0.00000E+000	1.51264E-004	.............
EOC	QUANT	3.67175	Open Circuit (V)
PSTATMODEL	IQUANT	4	Pstat Model
PSTATSECTION	LABEL	REF600-07089	Pstat Section
PSTATSERIALNO	LABEL	07089	Pstat Serial Number
CTRLMODE	IQUANT	1	Control Mode
IESTAB	IQUANT	0	I/E Stability
CASPEED	IQUANT	2	Control Amp Speed
CONVENTION	IQUANT	1	Current Convention
ICHRANGE	IQUANT	2	Ich Range
ICHRANGEMODE	TOGGLE	F	Ich Auto Range
ICHOFFSETENABLE	TOGGLE	T	Ich Offset Enable
ICHOFFSET	QUANT	0	Ich Offset (V)
ICHFILTER	IQUANT	3	Ich Filter
VCHRANGE	IQUANT	2	Vch Range
VCHRANGEMODE	TOGGLE	F	Vch Auto Range
VCHOFFSETENABLE	TOGGLE	T	Vch Offset Enable
VCHOFFSET	QUANT	0	Vch Offset (V)
VCHFILTER	IQUANT	3	Vch Filter
ACHRANGE	IQUANT	2	Ach Range
ACHOFFSETENABLE	TOGGLE	F	Ach Offset Enable
ACHOFFSET	QUANT	0	Ach Offset (V)
ACHFILTER	IQUANT	2	Ach Filter
IERANGELOWERLIMIT	IQUANT	1	I/E Range Lower Limit
IERANGEMODE	TOGGLE	F	I/E AutoRange
IERANGE	IQUANT	10	I/E Range
POSFEEDENABLE	TOGGLE	F	Positive Feedback IR Comp
POSFEEDRESISTANCE	QUANT	0	Positive Feedback Resistance (ohm)
ACHSELECT	IQUANT	0	Ach Select
CABLEID	IQUANT	14	Cable ID
DCCALDATE	LABEL	14-4-2009	DC Calibration Date
ACCALDATE	LABEL	14-4-2009	AC Calibration Date
THERMOSELECT	IQUANT	0	Thermo Select
FRAMEWORKVERSION	QUANT	5.5	Framework Version
INSTRUMENTVERSION	LABEL	2.00	Instrument Version
ZCURVE	TABLE
	Pt	Time	Freq	Zreal	Zimag	Zsig	Zmod	Zphz	Idc	Vdc	IERange
	#	s	Hz	ohm	ohm	V	ohm	°	A	V	#
	0	11	495.793	1827.68	-37123.2	1	37168.2	-87.1814	1.10634E-008	2.99893	7
	1	16	495.793	1829.97	-37169.1	1	37214.2	-87.1814	9.28256E-009	2.89899	7
	2	22	495.793	1827.09	-37223.7	1	37268.5	-87.19	8.90177E-009	2.79903	7
	3	28	495.793	1828.6	-37269.6	1	37314.5	-87.1911	7.21039E-009	2.69908	7
	4	33	495.793	1834.07	-37317	1	37362.1	-87.1863	6.33627E-009	2.59909	7
	5	39	495.793	1831.96	-37392.1	1	37437	-87.1951	6.1578E-009	2.49917	7
	6	44	495.793	1835.3	-37459.4	1	37504.3	-87.1951	5.44274E-009	2.3992	7
	7	50	495.793	1840.71	-37534.7	1	37579.8	-87.1924	6.15183E-009	2.29923	7
	8	56	495.793	1831.43	-37613.3	1	37657.8	-87.2124	5.53422E-009	2.19926	7
	9	62	495.793	1842.53	-37706	1	37751	-87.2024	5.5733E-009	2.09929	7
	10	68	495.793	1842.26	-37811.5	1	37856.3	-87.2106	5.32014E-009	1.99932	7
	11	74	495.793	1843.93	-37933.4	1	37978.2	-87.217	6.01176E-009	1.89938	7
	12	80	495.793	1852.41	-38071.7	1	38116.8	-87.2144	5.65449E-009	1.79938	7
	13	86	495.793	1848.38	-38225.6	1	38270.2	-87.2317	5.86067E-009	1.69947	7
	14	92	495.793	1859.41	-38390.4	1	38435.4	-87.2271	5.63128E-009	1.59959	7
	15	98	495.793	1852.67	-38600.7	1	38645.2	-87.2522	5.70227E-009	1.49964	7
	16	104	495.793	1865	-38820.5	1	38865.3	-87.2495	5.77084E-009	1.39966	7
	17	110	495.793	1865.94	-39081.1	1	39125.6	-87.2665	6.14105E-009	1.2997	7
	18	116	495.793	1872.82	-39383.8	1	39428.3	-87.2775	5.09778E-009	1.19977	7
	19	122	495.793	1873.44	-39731.8	1	39775.9	-87.3004	5.74361E-009	1.09972	7
	20	128	495.793	1886.04	-40130.5	1	40174.8	-87.3092	5.28933E-009	0.99974	7
	21	134	495.793	1892.8	-40565.1	1	40609.2	-87.3285	5.3039E-009	0.899795	7
	22	140	495.793	1912.96	-41061.8	1	41106.3	-87.3327	6.13367E-009	0.799846	7
	23	146	495.793	1910.83	-41591.4	1	41635.2	-87.3695	5.85318E-009	0.699891	7
	24	152	495.793	1925.16	-42155.5	1	42199.4	-87.3852	6.10782E-009	0.599912	7
	25	158	495.793	1948.66	-42767.5	1	42811.8	-87.3912	5.55988E-009	0.499973	7
	26	164	495.793	1953.51	-43380.7	1	43424.7	-87.4216	5.49378E-009	0.400017	7
	27	170	495.793	1967.14	-44008.1	1	44052	-87.4406	6.27653E-009	0.30008	7
	28	176	495.793	1980.74	-44641.5	1	44685.4	-87.4594	5.58479E-009	0.200103	7
	29	182	495.793	2015.47	-45274.6	1	45319.4	-87.4511	5.5905E-009	0.100181	7
	30	187	495.793	2051.36	-45928.4	1	45974.2	-87.4426	6.19679E-009	0.000202	7
	31	193	495.793	2142.07	-46600.3	1	46649.5	-87.3681	6.22682E-009	-0.100027	7
	32	199	495.793	2271.62	-47349.9	1	47404.3	-87.2533	5.98837E-009	-0.199969	7
	33	205	495.793	2406.77	-48238.7	1	48298.7	-87.1437	5.83807E-009	-0.299948	7
	34	211	495.793	2496.06	-49229.9	1	49293.2	-87.0975	6.47053E-009	-0.399887	7
	35	217	495.793	2476.72	-50248.8	1	50309.8	-87.1782	6.15644E-009	-0.499859	7
	36	223	495.793	2366.57	-51185.3	1	51240	-87.3528	6.79288E-010	-0.59979	6
	37	229	495.793	2262.38	-51976.4	1	52025.6	-87.5077	6.61445E-010	-0.69978	6
	38	234	495.793	2192.69	-52665	1	52710.7	-87.6159	6.19517E-010	-0.799709	6
	39	240	495.793	2170	-53309.1	1	53353.3	-87.669	5.71371E-010	-0.899687	6
	40	246	495.793	2164.78	-53918.9	1	53962.3	-87.7009	6.57012E-010	-0.99965	6
	41	251	495.793	2167.41	-54511.4	1	54554.5	-87.7231	5.74128E-010	-1.0997	6
	42	257	495.793	2176.31	-55079.6	1	55122.6	-87.7373	5.77153E-010	-1.19965	6
	43	262	495.793	2185.31	-55622.8	1	55665.7	-87.7501	5.63095E-010	-1.2996	6
	44	268	495.793	2234.68	-56091	1	56135.5	-87.7185	5.20707E-010	-1.39957	6
	45	273	495.793	2285.37	-56465.1	1	56511.3	-87.6823	4.8618E-010	-1.49952	6
	46	279	495.793	2305.34	-56763.7	1	56810.5	-87.6743	5.78793E-010	-1.59945	6
	47	285	495.793	2298.39	-56997.5	1	57043.8	-87.6908	4.51105E-010	-1.69939	6
	48	290	495.793	2260.13	-57148.2	1	57192.9	-87.7352	4.81039E-010	-1.79934	6
	49	296	495.793	2216.4	-57272.6	1	57315.5	-87.7838	4.75989E-010	-1.89932	6
	50	301	495.793	2171.44	-57305.8	1	57347	-87.83	4.34406E-010	-1.99928	6
	51	306	495.793	2114.78	-57313.7	1	57352.7	-87.8868	4.27609E-010	-2.09926	6
	52	311	495.793	2069.24	-57293.2	1	57330.6	-87.9316	4.2707E-010	-2.19921	6
	53	317	495.793	2026.45	-57276.1	1	57311.9	-87.9737	4.4347E-010	-2.29921	6
	54	322	495.793	2005.88	-57243.7	1	57278.8	-87.9931	3.2862E-010	-2.39913	6
	55	327	495.793	1986.09	-57206.4	1	57240.9	-88.0116	3.8359E-010	-2.4991	6
	56	333	495.793	1971.55	-57123.3	1	57157.3	-88.0233	3.40769E-010	-2.59906	6
	57	339	495.793	1963.96	-57103.9	1	57137.7	-88.0302	3.3213E-010	-2.69903	6
	58	344	495.793	1954.28	-57082	1	57115.5	-88.0392	2.96076E-010	-2.79901	6
	59	349	495.793	1953.09	-57040.7	1	57074.2	-88.0389	2.51462E-010	-2.89892	6
	60	354	495.793	1948.46	-56985.4	1	57018.7	-88.0417	3.04258E-010	-2.9989	6