Folder: Scientific_Analysis_MN/OriginPro/EIS

Note: README.md
# Origin Pro and Python

This repository mostly contains useful information for the students of the
Micro and Nanotechnologies course in NOVA School of Science and Technology.

The information here provided is a set of utilities and templates that
the students can use as helpers for data analysis. These tools are provided
for both [Origin Pro](./OriginPro/) and [Python](./Python/).

File: C0_MS_pH4_01.DTA
EXPLAIN
TAG	MOTTSCHOTTKY
TITLE	LABEL	Mott-Schottky	Test &Identifier
DATE	LABEL	29-10-2009	Date
TIME	LABEL	21:50:05	Time
NOTES	NOTES	2	&Notes...
	Si/SiO2
	T=25.3oC
PSTAT	PSTAT	REF600-07089	Potentiostat
VINIT	POTEN	3.00000E+000	F	Initial &Voltage (V)
VFINAL	POTEN	-3.00000E+000	F	Final &Voltage (V)
VSTEP	QUANT	1.00000E-001	&Voltage Step (V)
FREQINIT	QUANT	1.00000E+003	Fre&quency (Hz)
VAC	QUANT	1.00000E+001	AC &Voltage (mV rms)
AREA	QUANT	1.00000E-002	&Area (cm^2)
CONDIT	TWOPARAM	T	2.00000E+001	3.00000E+000	Conditionin&g	Time(s)	E(V)
DELAY	TWOPARAM	T	2.50000E-001	0.00000E+000	Init. De&lay	Time(s)	Stab.(mV/s)
SPEED	SELECTOR	1	&Optimize for:
ZGUESS	QUANT	1.00000E+002	E&stimated Z (ohms)
OCVCURVE	TABLE	1
	Pt	T	Vf	Vm	Ach	Over
	#	s	V vs. Ref.	V	V	bits
	0	0.258333	3.67287E+000	0.00000E+000	-1.90170E-004	.............
EOC	QUANT	3.67287	Open Circuit (V)
PSTATMODEL	IQUANT	4	Pstat Model
PSTATSECTION	LABEL	REF600-07089	Pstat Section
PSTATSERIALNO	LABEL	07089	Pstat Serial Number
CTRLMODE	IQUANT	1	Control Mode
IESTAB	IQUANT	0	I/E Stability
CASPEED	IQUANT	2	Control Amp Speed
CONVENTION	IQUANT	1	Current Convention
ICHRANGE	IQUANT	2	Ich Range
ICHRANGEMODE	TOGGLE	F	Ich Auto Range
ICHOFFSETENABLE	TOGGLE	T	Ich Offset Enable
ICHOFFSET	QUANT	0	Ich Offset (V)
ICHFILTER	IQUANT	3	Ich Filter
VCHRANGE	IQUANT	2	Vch Range
VCHRANGEMODE	TOGGLE	F	Vch Auto Range
VCHOFFSETENABLE	TOGGLE	T	Vch Offset Enable
VCHOFFSET	QUANT	0	Vch Offset (V)
VCHFILTER	IQUANT	3	Vch Filter
ACHRANGE	IQUANT	2	Ach Range
ACHOFFSETENABLE	TOGGLE	F	Ach Offset Enable
ACHOFFSET	QUANT	0	Ach Offset (V)
ACHFILTER	IQUANT	1	Ach Filter
IERANGELOWERLIMIT	IQUANT	1	I/E Range Lower Limit
IERANGEMODE	TOGGLE	F	I/E AutoRange
IERANGE	IQUANT	10	I/E Range
POSFEEDENABLE	TOGGLE	F	Positive Feedback IR Comp
POSFEEDRESISTANCE	QUANT	0	Positive Feedback Resistance (ohm)
ACHSELECT	IQUANT	0	Ach Select
CABLEID	IQUANT	14	Cable ID
DCCALDATE	LABEL	14-4-2009	DC Calibration Date
ACCALDATE	LABEL	14-4-2009	AC Calibration Date
THERMOSELECT	IQUANT	0	Thermo Select
FRAMEWORKVERSION	QUANT	5.5	Framework Version
INSTRUMENTVERSION	LABEL	2.00	Instrument Version
ZCURVE	TABLE
	Pt	Time	Freq	Zreal	Zimag	Zsig	Zmod	Zphz	Idc	Vdc	IERange
	#	s	Hz	ohm	ohm	V	ohm	°	A	V	#
	0	10	998.26	1220.98	-18940.8	1	18980.1	-86.3116	1.09888E-008	2.9989	7
	1	15	998.26	1191.42	-18975.7	1	19013.1	-86.4073	1.65043E-008	2.89898	7
	2	21	998.26	1151.69	-18979.1	1	19014	-86.5275	1.10963E-008	2.79902	7
	3	27	998.26	1217.68	-19005.3	1	19044.3	-86.334	1.37136E-008	2.69908	7
	4	32	998.26	1157.74	-19048.1	1	19083.3	-86.5219	5.96409E-009	2.59907	7
	5	38	998.26	1230.13	-19107.6	1	19147.1	-86.3164	6.98801E-009	2.49915	7
	6	44	998.26	1191.05	-19105.3	1	19142.4	-86.4327	1.6021E-008	2.39921	7
	7	49	998.26	1236.09	-19106.4	1	19146.4	-86.2984	5.17136E-009	2.29923	7
	8	55	998.26	1123.95	-19202.3	1	19235.2	-86.6502	1.02814E-008	2.19926	7
	9	60	998.26	1238.28	-19305.1	1	19344.7	-86.3299	2.87312E-009	2.09928	7
	10	67	998.26	1139.92	-19360.9	1	19394.4	-86.6305	9.20377E-009	1.99932	7
	11	73	998.26	1207.45	-19444.3	1	19481.8	-86.4466	4.66462E-010	1.89937	7
	12	79	998.26	1181.54	-19492.3	1	19528.1	-86.5312	1.0104E-008	1.79938	7
	13	84	998.26	1264.28	-19530.2	1	19571.1	-86.2961	7.39397E-009	1.69946	7
	14	90	998.26	1258.9	-19662.9	1	19703.2	-86.3367	6.83816E-009	1.59958	7
	15	98	998.26	1238.16	-19810.1	1	19848.8	-86.4236	5.37112E-009	1.49962	7
	16	106	998.26	1212.58	-19919.4	1	19956.3	-86.5164	8.5147E-009	1.39966	7
	17	115	998.26	1267.98	-20085.3	1	20125.3	-86.3877	8.11325E-009	1.29971	7
	18	123	998.26	1280.86	-20201.9	1	20242.5	-86.3721	1.46978E-008	1.19976	7
	19	131	998.26	1135.39	-20400.9	1	20432.5	-86.8146	1.34958E-008	1.09974	7
	20	139	998.26	1282.05	-20630.2	1	20670	-86.444	1.04242E-008	0.99975	7
	21	151	998.26	1256.41	-20918.6	1	20956.3	-86.5628	1.23236E-008	0.899794	7
	22	156	998.26	1183.57	-21173	1	21206.1	-86.8005	6.02008E-009	0.799837	7
	23	162	998.26	1152.89	-21444.2	1	21475.2	-86.9226	-6.44541E-010	0.699876	7
	24	167	998.26	1177.14	-21759.6	1	21791.4	-86.9035	1.01865E-008	0.599921	7
	25	173	998.26	1218.82	-22037.9	1	22071.6	-86.8344	4.62996E-009	0.49996	7
	26	179	998.26	1222.32	-22377.2	1	22410.5	-86.8734	8.02626E-009	0.400011	7
	27	184	998.26	1291.7	-22769.4	1	22806	-86.7531	4.77911E-009	0.300072	7
	28	190	998.26	1314.81	-22963.5	1	23001.1	-86.723	1.25484E-008	0.200118	7
	29	196	998.26	1402.77	-23422.4	1	23464.4	-86.5726	5.13498E-009	0.100182	7
	30	201	998.26	1363.87	-23738.9	1	23778	-86.7118	1.07094E-008	0.000232	7
	31	207	998.26	1384.58	-24155.8	1	24195.5	-86.7195	2.03707E-009	-0.100031	7
	32	213	998.26	1515.11	-24592.3	1	24638.9	-86.4745	1.04924E-008	-0.199948	7
	33	219	998.26	1451.01	-25197.5	1	25239.2	-86.7042	9.36481E-009	-0.299926	7
	34	224	998.26	1397.77	-25637.3	1	25675.4	-86.8793	3.61274E-009	-0.399885	7
	35	230	998.26	1331.83	-26131.6	1	26165.5	-87.0824	4.2409E-009	-0.499868	7
	36	236	998.26	1357.45	-26524.9	1	26559.6	-87.0704	9.66136E-009	-0.599796	7
	37	242	998.26	1398.12	-26800.4	1	26836.8	-87.0137	4.15714E-009	-0.699791	7
	38	248	998.26	1393.08	-27084.3	1	27120.1	-87.0556	9.93839E-009	-0.799698	7
	39	253	998.26	1325.1	-27431.7	1	27463.7	-87.2345	9.44078E-009	-0.899675	7
	40	259	998.26	1395.34	-27714.4	1	27749.5	-87.1178	1.485E-009	-0.99966	7
	41	264	998.26	1262.16	-27868.9	1	27897.5	-87.4069	3.85442E-009	-1.0997	7
	42	269	998.26	1301.88	-28300.1	1	28330	-87.3661	3.36827E-009	-1.19965	7
	43	275	998.26	1208.86	-28659.6	1	28685.1	-87.5847	7.49102E-009	-1.29958	7
	44	281	998.26	1339.02	-28739.5	1	28770.7	-87.3324	9.39187E-009	-1.39955	7
	45	286	998.26	1407.29	-29057.4	1	29091.5	-87.2272	2.76346E-009	-1.49952	7
	46	292	998.26	1278	-29076.8	1	29104.8	-87.4833	1.30264E-008	-1.59942	7
	47	297	998.26	1430.84	-29137.4	1	29172.6	-87.1887	1.10411E-008	-1.69937	7
	48	302	998.26	1425.67	-29176.6	1	29211.4	-87.2026	8.65893E-009	-1.79932	7
	49	307	998.26	1368.06	-29034.9	1	29067.2	-87.3024	-1.22234E-009	-1.89933	7
	50	313	998.26	1372.33	-29214.4	1	29246.6	-87.3105	1.19464E-008	-1.99924	7
	51	318	998.26	1417.91	-28873.8	1	28908.6	-87.1886	-9.63397E-010	-2.09926	7
	52	323	998.26	1489.43	-29099.7	1	29137.8	-87.0699	6.85468E-009	-2.19919	7
	53	329	998.26	1384.35	-28940.1	1	28973.2	-87.2613	3.15523E-009	-2.2992	7
	54	335	998.26	1366.26	-28881.8	1	28914.1	-87.2916	1.16761E-008	-2.3991	7
	55	340	998.26	1250.47	-28947.5	1	28974.5	-87.5265	1.26161E-008	-2.49908	7
	56	345	998.26	1341.91	-28818.6	1	28849.8	-87.334	-1.76831E-009	-2.59906	7
	57	351	998.26	1255.83	-28735.4	1	28762.8	-87.4976	1.05951E-008	-2.69901	7
	58	357	998.26	1379.65	-28810	1	28843.1	-87.2583	7.92553E-010	-2.79901	7
	59	362	998.26	1276.71	-28624.4	1	28652.8	-87.4462	1.05704E-008	-2.89889	7
	60	367	998.26	1494.8	-28633	1	28672	-87.0116	1.02354E-008	-2.99888	7

File: C0_MS_pH4_02.DTA
EXPLAIN
TAG	MOTTSCHOTTKY
TITLE	LABEL	Mott-Schottky	Test &Identifier
DATE	LABEL	29-10-2009	Date
TIME	LABEL	21:57:03	Time
NOTES	NOTES	2	&Notes...
	Si/SiO2
	T=25.3oC
PSTAT	PSTAT	REF600-07089	Potentiostat
VINIT	POTEN	3.00000E+000	F	Initial &Voltage (V)
VFINAL	POTEN	-3.00000E+000	F	Final &Voltage (V)
VSTEP	QUANT	1.00000E-001	&Voltage Step (V)
FREQINIT	QUANT	1.00000E+003	Fre&quency (Hz)
VAC	QUANT	1.00000E+001	AC &Voltage (mV rms)
AREA	QUANT	1.00000E-002	&Area (cm^2)
CONDIT	TWOPARAM	T	2.00000E+001	3.00000E+000	Conditionin&g	Time(s)	E(V)
DELAY	TWOPARAM	T	2.50000E-001	0.00000E+000	Init. De&lay	Time(s)	Stab.(mV/s)
SPEED	SELECTOR	1	&Optimize for:
ZGUESS	QUANT	1.00000E+002	E&stimated Z (ohms)
OCVCURVE	TABLE	1
	Pt	T	Vf	Vm	Ach	Over
	#	s	V vs. Ref.	V	V	bits
	0	0.258333	3.66017E+000	0.00000E+000	3.11922E-004	.............
EOC	QUANT	3.66017	Open Circuit (V)
PSTATMODEL	IQUANT	4	Pstat Model
PSTATSECTION	LABEL	REF600-07089	Pstat Section
PSTATSERIALNO	LABEL	07089	Pstat Serial Number
CTRLMODE	IQUANT	1	Control Mode
IESTAB	IQUANT	0	I/E Stability
CASPEED	IQUANT	2	Control Amp Speed
CONVENTION	IQUANT	1	Current Convention
ICHRANGE	IQUANT	2	Ich Range
ICHRANGEMODE	TOGGLE	F	Ich Auto Range
ICHOFFSETENABLE	TOGGLE	T	Ich Offset Enable
ICHOFFSET	QUANT	0	Ich Offset (V)
ICHFILTER	IQUANT	3	Ich Filter
VCHRANGE	IQUANT	2	Vch Range
VCHRANGEMODE	TOGGLE	F	Vch Auto Range
VCHOFFSETENABLE	TOGGLE	T	Vch Offset Enable
VCHOFFSET	QUANT	0	Vch Offset (V)
VCHFILTER	IQUANT	3	Vch Filter
ACHRANGE	IQUANT	2	Ach Range
ACHOFFSETENABLE	TOGGLE	F	Ach Offset Enable
ACHOFFSET	QUANT	0	Ach Offset (V)
ACHFILTER	IQUANT	1	Ach Filter
IERANGELOWERLIMIT	IQUANT	1	I/E Range Lower Limit
IERANGEMODE	TOGGLE	F	I/E AutoRange
IERANGE	IQUANT	10	I/E Range
POSFEEDENABLE	TOGGLE	F	Positive Feedback IR Comp
POSFEEDRESISTANCE	QUANT	0	Positive Feedback Resistance (ohm)
ACHSELECT	IQUANT	0	Ach Select
CABLEID	IQUANT	14	Cable ID
DCCALDATE	LABEL	14-4-2009	DC Calibration Date
ACCALDATE	LABEL	14-4-2009	AC Calibration Date
THERMOSELECT	IQUANT	0	Thermo Select
FRAMEWORKVERSION	QUANT	5.5	Framework Version
INSTRUMENTVERSION	LABEL	2.00	Instrument Version
ZCURVE	TABLE
	Pt	Time	Freq	Zreal	Zimag	Zsig	Zmod	Zphz	Idc	Vdc	IERange
	#	s	Hz	ohm	ohm	V	ohm	°	A	V	#
	0	10	998.26	1217.07	-18894.9	1	18934.1	-86.3145	1.81671E-008	2.99892	7
	1	16	998.26	1197.47	-18921.8	1	18959.6	-86.3788	1.08089E-008	2.89896	7
	2	21	998.26	1190.84	-19011.4	1	19048.7	-86.4158	5.02759E-009	2.799	7
	3	26	998.26	1202.34	-19050.3	1	19088.2	-86.3886	1.3911E-008	2.69907	7
	4	32	998.26	1206.77	-19082.1	1	19120.2	-86.3814	1.1155E-008	2.59909	7
	5	37	998.26	1201.22	-19071	1	19108.8	-86.3959	9.84109E-009	2.49915	7
	6	43	998.26	1225.17	-19130.7	1	19169.9	-86.3357	9.54235E-009	2.3992	7
	7	49	998.26	1254.8	-19108.8	1	19149.9	-86.243	2.79111E-010	2.29921	7
	8	54	998.26	1222.62	-19251	1	19289.8	-86.3661	6.18104E-009	2.19924	7
	9	60	998.26	1262.46	-19255.9	1	19297.3	-86.2489	5.20886E-009	2.09928	7
	10	65	998.26	1216.61	-19353	1	19391.2	-86.4029	6.03276E-009	1.9993	7
	11	71	998.26	1175.74	-19470.2	1	19505.6	-86.5443	6.70829E-009	1.89937	7
	12	76	998.26	1213.56	-19452.7	1	19490.5	-86.4302	2.48288E-009	1.79935	7
	13	81	998.26	1210.17	-19610.1	1	19647.4	-86.4687	1.97335E-009	1.69944	7
	14	87	998.26	1247.47	-19741.5	1	19780.9	-86.3843	6.5067E-009	1.59958	7
	15	93	998.26	1199.14	-19742.5	1	19778.9	-86.5242	1.00563E-008	1.49963	7
	16	98	998.26	1158.91	-19944.5	1	19978.1	-86.6744	9.39389E-009	1.39965	7
	17	104	998.26	1221.52	-20094.9	1	20132	-86.5214	5.00857E-009	1.29968	7
	18	112	998.26	1197.81	-20145.2	1	20180.8	-86.5973	5.53034E-009	1.19975	7
	19	120	998.26	1282.96	-20408.9	1	20449.2	-86.403	5.10219E-010	1.0997	7
	20	128	998.26	1177.4	-20690.8	1	20724.2	-86.7431	3.0847E-009	0.99972	7
	21	137	998.26	1240.11	-20925.9	1	20962.7	-86.6085	3.22283E-009	0.899776	7
	22	145	998.26	1189.07	-21180.1	1	21213.5	-86.7868	6.53161E-009	0.799827	7
	23	153	998.26	1289.03	-21427.4	1	21466.1	-86.5573	1.34327E-008	0.699887	7
	24	167	998.26	1261.83	-21832.3	1	21868.8	-86.6922	6.1886E-009	0.599899	7
	25	178	998.26	1286.8	-22095.3	1	22132.7	-86.6669	1.1539E-008	0.499973	7
	26	184	998.26	1160.03	-22341.7	1	22371.8	-87.0277	7.60919E-009	0.400005	7
	27	190	998.26	1308.45	-22661.3	1	22699	-86.6954	5.23508E-009	0.300063	7
	28	195	998.26	1229.46	-23070	1	23102.8	-86.9495	5.00024E-009	0.200092	7
	29	201	998.26	1155.42	-23386.8	1	23415.3	-87.1716	6.10707E-009	0.100177	7
	30	207	998.26	1339.7	-23762.6	1	23800.4	-86.7732	1.4213E-008	0.000217	7
	31	212	998.26	1421.82	-24184	1	24225.8	-86.6353	1.24436E-008	-0.100022	7
	32	218	998.26	1474.37	-24579.5	1	24623.7	-86.5673	1.0131E-008	-0.199966	7
	33	224	998.26	1375.49	-25249.5	1	25287	-86.8818	3.64678E-008	-0.299935	8
	34	230	998.26	1395.55	-25613.5	1	25651.5	-86.8813	5.10959E-009	-0.399884	7
	35	236	998.26	1296.23	-26022.1	1	26054.4	-87.1483	9.48472E-009	-0.499853	7
	36	241	998.26	1271.42	-26527.6	1	26558.1	-87.256	5.89948E-009	-0.599796	7
	37	246	998.26	1403.7	-26784.6	1	26821.3	-87	4.9959E-009	-0.699776	7
	38	252	998.26	1243.09	-27153.4	1	27181.8	-87.3788	6.91967E-009	-0.799693	7
	39	257	998.26	1305.31	-27437.1	1	27468.1	-87.2762	5.02408E-009	-0.899683	7
	40	262	998.26	1260.54	-27765.4	1	27794	-87.4006	-1.66525E-010	-0.99966	7
	41	267	998.26	1287.83	-28113.5	1	28143	-87.3772	9.86209E-009	-1.09968	7
	42	273	998.26	1298.53	-28311.3	1	28341.1	-87.3739	8.30857E-009	-1.19964	7
	43	278	998.26	1288.77	-28591.2	1	28620.3	-87.4191	3.29412E-009	-1.29959	7
	44	284	998.26	1348.66	-28757.8	1	28789.4	-87.315	5.77283E-010	-1.39958	7
	45	289	998.26	1366.72	-29062.7	1	29094.8	-87.3075	2.89919E-009	-1.49952	7
	46	294	998.26	1418.66	-29036.4	1	29071	-87.2029	7.3009E-009	-1.59943	7
	47	300	998.26	1448.76	-29155.1	1	29191.1	-87.1552	5.25809E-009	-1.69938	7
	48	305	998.26	1388.84	-29185.8	1	29218.8	-87.2756	4.71165E-011	-1.79934	7
	49	310	998.26	1366.1	-29079	1	29111	-87.3103	2.19599E-009	-1.89931	7
	50	315	998.26	1443.39	-29041.4	1	29077.2	-87.1547	9.38401E-009	-1.99924	7
	51	321	998.26	1359.31	-29142.2	1	29173.9	-87.3294	9.88132E-009	-2.09922	7
	52	326	998.26	1264.21	-28985.5	1	29013	-87.5026	1.0333E-008	-2.19918	7
	53	332	998.26	1310.89	-28844.8	1	28874.5	-87.3979	2.27113E-010	-2.29919	7
	54	338	998.26	1340.77	-28794.1	1	28825.3	-87.334	4.32605E-009	-2.39911	7
	55	343	998.26	1229.6	-28909.8	1	28935.9	-87.5645	4.26654E-009	-2.49909	7
	56	348	998.26	1320.83	-28858.6	1	28888.8	-87.3795	1.94175E-009	-2.59904	7
	57	354	998.26	1172.32	-28834.8	1	28858.6	-87.6718	1.00216E-008	-2.69899	7
	58	359	998.26	1416.72	-28772.9	1	28807.7	-87.1811	6.03325E-010	-2.79899	7
	59	364	998.26	1326.97	-28668.1	1	28698.8	-87.3498	8.13542E-009	-2.89887	7
	60	370	998.26	1353.06	-28625.2	1	28657.2	-87.2938	8.73438E-009	-2.99887	7

File: C0_MS_pH4_03.DTA
EXPLAIN
TAG	MOTTSCHOTTKY
TITLE	LABEL	Mott-Schottky	Test &Identifier
DATE	LABEL	29-10-2009	Date
TIME	LABEL	22:04:01	Time
NOTES	NOTES	2	&Notes...
	Si/SiO2
	T=25.3oC
PSTAT	PSTAT	REF600-07089	Potentiostat
VINIT	POTEN	3.00000E+000	F	Initial &Voltage (V)
VFINAL	POTEN	-3.00000E+000	F	Final &Voltage (V)
VSTEP	QUANT	1.00000E-001	&Voltage Step (V)
FREQINIT	QUANT	1.00000E+003	Fre&quency (Hz)
VAC	QUANT	1.00000E+001	AC &Voltage (mV rms)
AREA	QUANT	1.00000E-002	&Area (cm^2)
CONDIT	TWOPARAM	T	2.00000E+001	3.00000E+000	Conditionin&g	Time(s)	E(V)
DELAY	TWOPARAM	T	2.50000E-001	0.00000E+000	Init. De&lay	Time(s)	Stab.(mV/s)
SPEED	SELECTOR	1	&Optimize for:
ZGUESS	QUANT	1.00000E+002	E&stimated Z (ohms)
OCVCURVE	TABLE	1
	Pt	T	Vf	Vm	Ach	Over
	#	s	V vs. Ref.	V	V	bits
	0	0.258333	3.66003E+000	0.00000E+000	-1.88004E-004	.............
EOC	QUANT	3.66003	Open Circuit (V)
PSTATMODEL	IQUANT	4	Pstat Model
PSTATSECTION	LABEL	REF600-07089	Pstat Section
PSTATSERIALNO	LABEL	07089	Pstat Serial Number
CTRLMODE	IQUANT	1	Control Mode
IESTAB	IQUANT	0	I/E Stability
CASPEED	IQUANT	2	Control Amp Speed
CONVENTION	IQUANT	1	Current Convention
ICHRANGE	IQUANT	2	Ich Range
ICHRANGEMODE	TOGGLE	F	Ich Auto Range
ICHOFFSETENABLE	TOGGLE	T	Ich Offset Enable
ICHOFFSET	QUANT	0	Ich Offset (V)
ICHFILTER	IQUANT	3	Ich Filter
VCHRANGE	IQUANT	2	Vch Range
VCHRANGEMODE	TOGGLE	F	Vch Auto Range
VCHOFFSETENABLE	TOGGLE	T	Vch Offset Enable
VCHOFFSET	QUANT	0	Vch Offset (V)
VCHFILTER	IQUANT	3	Vch Filter
ACHRANGE	IQUANT	2	Ach Range
ACHOFFSETENABLE	TOGGLE	F	Ach Offset Enable
ACHOFFSET	QUANT	0	Ach Offset (V)
ACHFILTER	IQUANT	1	Ach Filter
IERANGELOWERLIMIT	IQUANT	1	I/E Range Lower Limit
IERANGEMODE	TOGGLE	F	I/E AutoRange
IERANGE	IQUANT	10	I/E Range
POSFEEDENABLE	TOGGLE	F	Positive Feedback IR Comp
POSFEEDRESISTANCE	QUANT	0	Positive Feedback Resistance (ohm)
ACHSELECT	IQUANT	0	Ach Select
CABLEID	IQUANT	14	Cable ID
DCCALDATE	LABEL	14-4-2009	DC Calibration Date
ACCALDATE	LABEL	14-4-2009	AC Calibration Date
THERMOSELECT	IQUANT	0	Thermo Select
FRAMEWORKVERSION	QUANT	5.5	Framework Version
INSTRUMENTVERSION	LABEL	2.00	Instrument Version
ZCURVE	TABLE
	Pt	Time	Freq	Zreal	Zimag	Zsig	Zmod	Zphz	Idc	Vdc	IERange
	#	s	Hz	ohm	ohm	V	ohm	°	A	V	#
	0	10	998.26	1282.8	-18933	1	18976.4	-86.1239	1.573E-008	2.99893	7
	1	15	998.26	1205.84	-18934.3	1	18972.6	-86.356	4.9412E-009	2.89895	7
	2	21	998.26	1196.11	-18980.3	1	19017.9	-86.3941	9.19977E-009	2.79902	7
	3	26	998.26	1238.87	-18979.4	1	19019.8	-86.2653	4.60149E-009	2.69905	7
	4	31	998.26	1214.53	-19128.7	1	19167.2	-86.367	3.60526E-009	2.59907	7
	5	37	998.26	1187.07	-19154.3	1	19191	-86.4537	7.26287E-009	2.49915	7
	6	42	998.26	1158.43	-19167.7	1	19202.7	-86.5414	4.15559E-009	2.39918	7
	7	48	998.26	1217.91	-19157.1	1	19195.7	-86.3623	3.60196E-009	2.29922	7
	8	54	998.26	1261.27	-19195.6	1	19237	-86.2407	8.86891E-009	2.19925	7
	9	59	998.26	1225.62	-19199.5	1	19238.6	-86.3474	1.2191E-008	2.09931	7
	10	65	998.26	1179.38	-19305.5	1	19341.5	-86.5041	5.24159E-009	1.99931	7
	11	70	998.26	1173.21	-19408.1	1	19443.5	-86.5407	9.59843E-009	1.89938	7
	12	76	998.26	1185.49	-19432.4	1	19468.5	-86.509	1.22659E-008	1.79939	7
	13	82	998.26	1146.72	-19507.2	1	19540.9	-86.6358	1.03274E-008	1.69948	7
	14	88	998.26	1215.41	-19696.5	1	19734	-86.4689	1.24365E-009	1.59958	7
	15	94	998.26	1193.19	-19754.9	1	19790.9	-86.5436	1.12632E-008	1.49965	7
	16	99	998.26	1173.9	-19924	1	19958.5	-86.6281	5.64703E-009	1.39965	7
	17	105	998.26	1200.86	-20050.1	1	20086	-86.5725	9.20724E-009	1.29972	7
	18	113	998.26	1174.65	-20232.5	1	20266.5	-86.6773	7.42818E-009	1.19976	7
	19	121	998.26	1163.4	-20445.6	1	20478.7	-86.7433	8.87073E-009	1.09972	7
	20	130	998.26	1220.39	-20699	1	20734.9	-86.6258	1.41365E-008	0.99976	7
	21	138	998.26	1219.58	-20934.7	1	20970.2	-86.6659	4.44435E-009	0.899781	7
	22	146	998.26	1273.35	-21170.3	1	21208.6	-86.5579	3.33161E-009	0.799829	7
	23	154	998.26	1140.46	-21389.8	1	21420.2	-86.948	1.03166E-008	0.699897	7
	24	165	998.26	1168.99	-21799	1	21830.3	-86.9304	8.42536E-009	0.599905	7
	25	179	998.26	1215.82	-22068	1	22101.5	-86.8465	1.48619E-008	0.499989	7
	26	185	998.26	1221.34	-22427.2	1	22460.5	-86.8829	1.36466E-008	0.400027	7
	27	191	998.26	1261.43	-22706.7	1	22741.7	-86.8203	6.35919E-009	0.300083	7
	28	196	998.26	1254.23	-23035.1	1	23069.2	-86.8834	9.72344E-010	0.200092	7
	29	202	998.26	1324.26	-23355.6	1	23393.1	-86.7548	4.30483E-009	0.100185	7
	30	208	998.26	1322.37	-23724.9	1	23761.8	-86.8098	1.09618E-008	0.000238	7
	31	213	998.26	1233.55	-24085.6	1	24117.2	-87.0681	4.85504E-008	-0.099995	8
	32	219	998.26	1507.98	-24759.7	1	24805.6	-86.5147	9.41092E-010	-0.199969	7
	33	224	998.26	1438.76	-25173.4	1	25214.4	-86.7289	2.37367E-009	-0.299937	7
	34	230	998.26	1360.03	-25635.8	1	25671.8	-86.9632	1.80652E-009	-0.399885	7
	35	236	998.26	1421.32	-25992.5	1	26031.3	-86.8701	2.29349E-009	-0.499861	7
	36	242	998.26	1297.5	-26598.9	1	26630.5	-87.2073	3.38966E-009	-0.599796	7
	37	248	998.26	1300.95	-26861.1	1	26892.6	-87.2272	2.61543E-009	-0.699778	7
	38	253	998.26	1368.88	-27101.4	1	27135.9	-87.1085	5.82557E-009	-0.7997	7
	39	258	998.26	1341.55	-27436.2	1	27469	-87.2006	9.9734E-009	-0.899662	7
	40	264	998.26	1280.23	-27704.9	1	27734.4	-87.3543	7.1297E-009	-0.99963	7
	41	270	998.26	1071.82	-28085.9	1	28106.4	-87.8145	1.07294E-008	-1.09967	7
	42	276	998.26	1250.53	-28288.2	1	28315.8	-87.4688	9.16351E-009	-1.19963	7
	43	281	998.26	1227.89	-28680.9	1	28707.2	-87.5486	9.56703E-009	-1.29956	7
	44	286	998.26	1390.52	-28830.9	1	28864.4	-87.2388	3.85353E-009	-1.39956	7
	45	292	998.26	1390.05	-29125.8	1	29159	-87.2676	1.0918E-009	-1.49953	7
	46	297	998.26	1407.68	-29270.1	1	29304	-87.2466	1.3778E-009	-1.59944	7
	47	302	998.26	1422.82	-29325.3	1	29359.8	-87.2223	1.26882E-008	-1.69937	7
	48	308	998.26	1496.76	-29233.4	1	29271.7	-87.069	1.13493E-008	-1.79931	7
	49	313	998.26	1396.51	-29184.9	1	29218.2	-87.2605	7.55643E-009	-1.89928	7
	50	319	998.26	1224.45	-29222.7	1	29248.3	-87.6007	3.47727E-009	-1.99926	7
	51	324	998.26	1483.25	-29003.1	1	29041	-87.0724	1.34482E-008	-2.09921	7
	52	329	998.26	1420.6	-28946.5	1	28981.3	-87.1904	2.22756E-009	-2.19919	7
	53	335	998.26	1205.44	-28927.2	1	28952.3	-87.6138	1.15646E-008	-2.29917	7
	54	341	998.26	1346.61	-28927.4	1	28958.8	-87.3347	1.0443E-008	-2.3991	7
	55	346	998.26	1282.22	-28893.2	1	28921.6	-87.459	1.16783E-008	-2.49906	7
	56	352	998.26	1357.96	-28881.4	1	28913.3	-87.308	4.12596E-009	-2.59904	7
	57	357	998.26	1394.76	-28689.3	1	28723.2	-87.2167	-2.33081E-010	-2.69902	7
	58	363	998.26	1341.62	-28724.6	1	28755.9	-87.3259	5.02488E-009	-2.79898	7
	59	368	998.26	1315.86	-28801.7	1	28831.7	-87.3842	1.22992E-008	-2.89888	7
	60	374	998.26	1427.25	-28826.6	1	28861.9	-87.1655	6.01602E-009	-2.99888	7