Folder: Scientific_Analysis_MN/Python/Cell_Characterization/Polars (part 5)

File: IBC_konst_800nmTiO2-70deg 2022-09-16 14-06-48.txt
Device Id	Operator	Recipe
IBC_konst_800nmTiO2-70deg	IS	ANA test,IV

Sample Area	Irradiance	Pre sweep delay	Bias Direction	Max Reverse Bias	Max Forward Bias	Num Sweep Points	Dwell Time	Current Limit	PVIV 10A I-AMP	Average	Dark Current	Rshunt V-Lo	Rshunt V-Hi
4,3681	1	0,5	0	0	0,7	100	50	200	0	0	0	-0,6	-0,1

Voc V	Isc A	Jsc mA/cm2	Imax A	Vmax V	Pmax mW	Fill Factor	Efficiency	R at Voc	R at Isc	Power W	RShunt ohms	Cell Temp start	Cell Temp end	Exposure	Time	Date
0,56262797	0,03762608	8,61383116	0,03202374	0,45379019	14,53206026	68,6463	3,3269	1,493676	150,24	0,01861361	NaN	NaN	NaN	13,025	14:06:48	09/16/2022

Vmeas	Imeas
0,7	-0,1999632	-19,99632
0,69295	-0,1999572	-19,99572
0,68585	-0,1999622	-19,99622
0,6788	-0,1999631	-19,99631
0,6717	-0,199968	-19,9968
0,66465	-0,1874126	-18,74126
0,6576	-0,1646122	-16,46122
0,6505	-0,1434004	-14,34004
0,64345	-0,1239667	-12,39667
0,63635	-0,1060766	-10,60766
0,6293	-0,09013445	-9,013445
0,6222	-0,0753526	-7,53526
0,61515	-0,06215719	-6,215719
0,6081	-0,05025453	-5,025453
0,601	-0,03957767	-3,957767
0,59395	-0,03012962	-3,012962
0,58685	-0,02171587	-2,171587
0,5798	-0,01435852	-1,435852
0,57275	-0,00788894	-0,788894
0,56565	-0,00212194	-0,212194
0,5586	0,00290748	0,290748
0,5515	0,00733799	0,733799
0,54445	0,0111295	1,11295
0,53735	0,01451868	1,451868
0,5303	0,01742437	1,742437
0,52325	0,01996193	1,996193
0,51615	0,02217123	2,217123
0,5091	0,02406966	2,406966
0,502	0,02571371	2,571371
0,49495	0,02711256	2,711256
0,4879	0,02831591	2,831591
0,4808	0,02934647	2,934647
0,47375	0,03021936	3,021936
0,46665	0,03096163	3,096163
0,4596	0,03158285	3,158285
0,4525	0,03211259	3,211259
0,44545	0,03255691	3,255691
0,4384	0,0329317	3,29317
0,4313	0,03325016	3,325016
0,42425	0,03351914	3,351914
0,41715	0,03375211	3,375211
0,4101	0,03395005	3,395005
0,40305	0,03412331	3,412331
0,39595	0,03427557	3,427557
0,3889	0,03440997	3,440997
0,3818	0,03453092	3,453092
0,37475	0,03463931	3,463931
0,3677	0,0347392	3,47392
0,3606	0,03483219	3,483219
0,35355	0,03491882	3,491882
0,34645	0,03500086	3,500086
0,3394	0,03507802	3,507802
0,3323	0,03515277	3,515277
0,32525	0,03522386	3,522386
0,3182	0,03529257	3,529257
0,3111	0,03535943	3,535943
0,30405	0,03542406	3,542406
0,29695	0,03548783	3,548783
0,2899	0,03554934	3,554934
0,28285	0,03560969	3,560969
0,27575	0,03567003	3,567003
0,2687	0,03572855	3,572855
0,2616	0,03578637	3,578637
0,25455	0,03584423	3,584423
0,24745	0,03590091	3,590091
0,2404	0,03595655	3,595655
0,23335	0,03601217	3,601217
0,22625	0,03606763	3,606763
0,2192	0,036121	3,6121
0,2121	0,0361742	3,61742
0,20505	0,03622691	3,622691
0,198	0,03627887	3,627887
0,1909	0,03633107	3,633107
0,18385	0,0363819	3,63819
0,17675	0,03643342	3,643342
0,1697	0,03648414	3,648414
0,16265	0,036534	3,6534
0,15555	0,03658413	3,658413
0,1485	0,03663371	3,663371
0,1414	0,03668325	3,668325
0,13435	0,03673168	3,673168
0,12725	0,03678057	3,678057
0,1202	0,03682863	3,682863
0,11315	0,03687617	3,687617
0,10605	0,03692396	3,692396
0,099	0,03697129	3,697129
0,0919	0,03701904	3,701904
0,08485	0,03706612	3,706612
0,0778	0,03711274	3,711274
0,0707	0,03715966	3,715966
0,06365	0,03720569	3,720569
0,05655	0,03725194	3,725194
0,0495	0,03729819	3,729819
0,0424	0,03734465	3,734465
0,03535	0,03739075	3,739075
0,0283	0,03743608	3,743608
0,0212	0,03748252	3,748252
0,01415	0,03752784	3,752784
0,00705	0,03757371	3,757371
0	0,03762026	3,762026

File: IBC_konst_800nmTiO2-80deg 2022-09-16 14-07-32.txt
Device Id	Operator	Recipe
IBC_konst_800nmTiO2-80deg	IS	ANA test,IV

Sample Area	Irradiance	Pre sweep delay	Bias Direction	Max Reverse Bias	Max Forward Bias	Num Sweep Points	Dwell Time	Current Limit	PVIV 10A I-AMP	Average	Dark Current	Rshunt V-Lo	Rshunt V-Hi
4,3681	1	0,5	0	0	0,7	100	50	200	0	0	0	-0,6	-0,1

Voc V	Isc A	Jsc mA/cm2	Imax A	Vmax V	Pmax mW	Fill Factor	Efficiency	R at Voc	R at Isc	Power W	RShunt ohms	Cell Temp start	Cell Temp end	Exposure	Time	Date
0,51935635	0,01420327	3,25159106	0,01057006	0,41776037	4,4157514	59,8619	1,0109	3,996751	155,115	0,00604531	NaN	NaN	NaN	13,35	14:07:32	09/16/2022

Vmeas	Imeas
0,7	-0,1999616	-19,99616
0,69295	-0,1999561	-19,99561
0,68585	-0,19996	-19,996
0,6788	-0,1999637	-19,99637
0,6717	-0,1999645	-19,99645
0,66465	-0,1934922	-19,34922
0,6576	-0,1716343	-17,16343
0,6505	-0,1514128	-15,14128
0,64345	-0,1329822	-13,29822
0,63635	-0,1161213	-11,61213
0,6293	-0,1009172	-10,09172
0,6222	-0,08729948	-8,729948
0,61515	-0,07507446	-7,507446
0,6081	-0,0641114	-6,41114
0,601	-0,05433003	-5,433003
0,59395	-0,04571977	-4,571977
0,58685	-0,03809234	-3,809234
0,5798	-0,0314556	-3,14556
0,57275	-0,02560449	-2,560449
0,56565	-0,02046338	-2,046338
0,5586	-0,01599759	-1,599759
0,5515	-0,01208222	-1,208222
0,54445	-0,00871575	-0,871575
0,53735	-0,00574749	-0,574749
0,5303	-0,00321532	-0,321532
0,52325	-0,0010158	-0,10158
0,51615	0,00089271	0,089271
0,5091	0,0025173	0,25173
0,502	0,0039161	0,39161
0,49495	0,00509781	0,509781
0,4879	0,00610868	0,610868
0,4808	0,00696839	0,696839
0,47375	0,00769118	0,769118
0,46665	0,00830302	0,830302
0,4596	0,00881218	0,881218
0,4525	0,00924483	0,924483
0,44545	0,00960709	0,960709
0,4384	0,00991323	0,991323
0,4313	0,01017324	1,017324
0,42425	0,01039354	1,039354
0,41715	0,0105856	1,05856
0,4101	0,01074975	1,074975
0,40305	0,0108945	1,08945
0,39595	0,01102348	1,102348
0,3889	0,01113869	1,113869
0,3818	0,01124379	1,124379
0,37475	0,0113395	1,13395
0,3677	0,01142875	1,142875
0,3606	0,01151282	1,151282
0,35355	0,01159189	1,159189
0,34645	0,01166731	1,166731
0,3394	0,01173895	1,173895
0,3323	0,0118083	1,18083
0,32525	0,01187515	1,187515
0,3182	0,01193983	1,193983
0,3111	0,01200345	1,200345
0,30405	0,0120645	1,20645
0,29695	0,01212587	1,212587
0,2899	0,01218458	1,218458
0,28285	0,01224326	1,224326
0,27575	0,01230072	1,230072
0,2687	0,01235751	1,235751
0,2616	0,01241398	1,241398
0,25455	0,01246879	1,246879
0,24745	0,01252369	1,252369
0,2404	0,01257767	1,257767
0,23335	0,012631	1,2631
0,22625	0,01268402	1,268402
0,2192	0,01273634	1,273634
0,2121	0,01278857	1,278857
0,20505	0,0128398	1,28398
0,198	0,01289054	1,289054
0,1909	0,01294108	1,294108
0,18385	0,01299077	1,299077
0,17675	0,01304067	1,304067
0,1697	0,01309003	1,309003
0,16265	0,01313898	1,313898
0,15555	0,0131879	1,31879
0,1485	0,01323628	1,323628
0,1414	0,01328445	1,328445
0,13435	0,01333195	1,333195
0,12725	0,01337915	1,337915
0,1202	0,01342593	1,342593
0,11315	0,01347259	1,347259
0,10605	0,01351955	1,351955
0,099	0,01356567	1,356567
0,0919	0,01361205	1,361205
0,08485	0,01365806	1,365806
0,0778	0,01370386	1,370386
0,0707	0,01374964	1,374964
0,06365	0,01379475	1,379475
0,05655	0,01384022	1,384022
0,0495	0,01388542	1,388542
0,0424	0,01393089	1,393089
0,03535	0,01397585	1,397585
0,0283	0,01402066	1,402066
0,0212	0,01406589	1,406589
0,01415	0,01411058	1,411058
0,00705	0,01415567	1,415567
0	0,01420124	1,420124

File: IBC_konst_800nmTiO2-90deg 2022-09-16 14-08-09.txt
Device Id	Operator	Recipe
IBC_konst_800nmTiO2-90deg	IS	ANA test,IV

Sample Area	Irradiance	Pre sweep delay	Bias Direction	Max Reverse Bias	Max Forward Bias	Num Sweep Points	Dwell Time	Current Limit	PVIV 10A I-AMP	Average	Dark Current	Rshunt V-Lo	Rshunt V-Hi
4,3681	1	0,5	0	0	0,7	100	50	200	0	0	0	-0,6	-0,1

Voc V	Isc A	Jsc mA/cm2	Imax A	Vmax V	Pmax mW	Fill Factor	Efficiency	R at Voc	R at Isc	Power W	RShunt ohms	Cell Temp start	Cell Temp end	Exposure	Time	Date
0,25400274	0,00170389	0,39007657	0,00086691	0,13122626	0,11376192	26,2855	0,026	130,812668	158,38	0,00022366	NaN	NaN	NaN	13,848	14:08:09	09/16/2022

Vmeas	Imeas
0,7	-0,1999607	-19,99607
0,69295	-0,1999556	-19,99556
0,68585	-0,1999619	-19,99619
0,6788	-0,1999652	-19,99652
0,6717	-0,1999631	-19,99631
0,66465	-0,1960867	-19,60867
0,6576	-0,1748408	-17,48408
0,6505	-0,1552525	-15,52525
0,64345	-0,1374475	-13,74475
0,63635	-0,121218	-12,1218
0,6293	-0,1066419	-10,66419
0,6222	-0,09358163	-9,358163
0,61515	-0,08193914	-8,193914
0,6081	-0,07153449	-7,153449
0,601	-0,06228037	-6,228037
0,59395	-0,05416166	-5,416166
0,58685	-0,0469902	-4,69902
0,5798	-0,04076825	-4,076825
0,57275	-0,0352969	-3,52969
0,56565	-0,03050158	-3,050158
0,5586	-0,0263452	-2,63452
0,5515	-0,02271002	-2,271002
0,54445	-0,01958809	-1,958809
0,53735	-0,01684581	-1,684581
0,5303	-0,01451161	-1,451161
0,52325	-0,01248814	-1,248814
0,51615	-0,01074105	-1,074105
0,5091	-0,00924892	-0,924892
0,502	-0,00796922	-0,796922
0,49495	-0,00688936	-0,688936
0,4879	-0,005967	-0,5967
0,4808	-0,00518273	-0,518273
0,47375	-0,00452259	-0,452259
0,46665	-0,00396283	-0,396283
0,4596	-0,0034949	-0,34949
0,4525	-0,00309546	-0,309546
0,44545	-0,00275903	-0,275903
0,4384	-0,00247353	-0,247353
0,4313	-0,00222865	-0,222865
0,42425	-0,00202014	-0,202014
0,41715	-0,00183709	-0,183709
0,4101	-0,00167984	-0,167984
0,40305	-0,00154046	-0,154046
0,39595	-0,00141552	-0,141552
0,3889	-0,00130357	-0,130357
0,3818	-0,00120133	-0,120133
0,37475	-0,00110815	-0,110815
0,3677	-0,0010211	-0,10211
0,3606	-0,00093952	-0,093952
0,35355	-0,00086257	-0,086257
0,34645	-0,00078886	-0,078886
0,3394	-0,00071907	-0,071907
0,3323	-0,00065124	-0,065124
0,32525	-0,00058583	-0,058583
0,3182	-0,0005222	-0,05222
0,3111	-0,00045993	-0,045993
0,30405	-0,00039966	-0,039966
0,29695	-0,00034004	-0,034004
0,2899	-0,00028182	-0,028182
0,28285	-0,00022457	-0,022457
0,27575	-0,00016781	-0,016781
0,2687	-0,00011232	-0,011232
0,2616	-0,00005697	-0,005697
0,25455	-0,00000306	-0,000306
0,24745	0,00005085	0,005085
0,2404	0,00010402	0,010402
0,23335	0,00015638	0,015638
0,22625	0,00020847	0,020847
0,2192	0,00025966	0,025966
0,2121	0,00031088	0,031088
0,20505	0,00036133	0,036133
0,198	0,0004114	0,04114
0,1909	0,00046131	0,046131
0,18385	0,0005103	0,05103
0,17675	0,00055957	0,055957
0,1697	0,00060813	0,060813
0,16265	0,00065629	0,065629
0,15555	0,00070437	0,070437
0,1485	0,00075169	0,075169
0,1414	0,00079945	0,079945
0,13435	0,00084625	0,084625
0,12725	0,00089308	0,089308
0,1202	0,00093943	0,093943
0,11315	0,00098556	0,098556
0,10605	0,0010317	0,10317
0,099	0,0010771	0,10771
0,0919	0,00112278	0,112278
0,08485	0,00116803	0,116803
0,0778	0,0012132	0,12132
0,0707	0,00125841	0,125841
0,06365	0,00130303	0,130303
0,05655	0,00134791	0,134791
0,0495	0,00139253	0,139253
0,0424	0,00143723	0,143723
0,03535	0,00148166	0,148166
0,0283	0,00152583	0,152583
0,0212	0,00157062	0,157062
0,01415	0,00161466	0,161466
0,00705	0,00165915	0,165915
0	0,00170401	0,170401

File: IBC_konst_800nmTiO2_0deg 2022-09-16.txt
Device Id	Operator	Recipe
LT_IBC_thin_300nmTiO2	IvanSantos	ANA test,IV

Sample Area	Irradiance	Pre sweep delay	Bias Direction	Max Reverse Bias	Max Forward Bias	Num Sweep Points	Dwell Time	Current Limit	PVIV 10A I-AMP	Average	Dark Current	Rshunt V-Lo	Rshunt V-Hi
4,3681	1	0,5	0	0	0,7	100	50	200	0	0	0	-0,6	-0,1

Voc V	Isc A	Jsc mA/cm2	Imax A	Vmax V	Pmax mW	Fill Factor	Efficiency	R at Voc	R at Isc	Power W	RShunt ohms	Cell Temp start	Cell Temp end	Exposure	Time	Date
0,6188206	0,13916947	31,86041378	0,12406993	0,48900718	60,67108394	70,4487	13,8896	0,471232	133,75	0,077348	NaN	NaN	NaN	13,142	12:16:11	09/15/2022

Vmeas	Imeas
0,7	-0,1999483	-19,99483
0,69295	-0,19995	-19,995
0,68585	-0,1999454	-19,99454
0,6788	-0,1820166	-18,20166
0,6717	-0,1544503	-15,44503
0,66465	-0,1286506	-12,86506
0,6576	-0,104254	-10,4254
0,6505	-0,08247253	-8,247253
0,64345	-0,06108916	-6,108916
0,63635	-0,04116211	-4,116211
0,6293	-0,02286512	-2,286512
0,6222	-0,00663707	-0,663707
0,61515	0,00876718	0,876718
0,6081	0,02186478	2,186478
0,601	0,03475934	3,475934
0,59395	0,04635325	4,635325
0,58685	0,0568418	5,68418
0,5798	0,06613852	6,613852
0,57275	0,07450369	7,450369
0,56565	0,08199799	8,199799
0,5586	0,08862789	8,862789
0,5515	0,09453861	9,453861
0,54445	0,09971677	9,971677
0,53735	0,1043722	10,43722
0,5303	0,108293	10,8293
0,52325	0,1119056	11,19056
0,51615	0,1150934	11,50934
0,5091	0,1178781	11,78781
0,502	0,1203383	12,03383
0,49495	0,122474	12,2474
0,4879	0,124359	12,4359
0,4808	0,1259998	12,59998
0,47375	0,1274296	12,74296
0,46665	0,1286753	12,86753
0,4596	0,1297468	12,97468
0,4525	0,130683	13,0683
0,44545	0,1314881	13,14881
0,4384	0,1321903	13,21903
0,4313	0,1327923	13,27923
0,42425	0,1333038	13,33038
0,41715	0,133757	13,3757
0,4101	0,1341443	13,41443
0,40305	0,1344759	13,44759
0,39595	0,1347655	13,47655
0,3889	0,1350207	13,50207
0,3818	0,1352465	13,52465
0,37475	0,1354394	13,54394
0,3677	0,1356173	13,56173
0,3606	0,1357733	13,57733
0,35355	0,1359154	13,59154
0,34645	0,1360423	13,60423
0,3394	0,1361621	13,61621
0,3323	0,1362706	13,62706
0,32525	0,1363749	13,63749
0,3182	0,1364717	13,64717
0,3111	0,1365574	13,65574
0,30405	0,1366406	13,66406
0,29695	0,1367162	13,67162
0,2899	0,1367982	13,67982
0,28285	0,1368727	13,68727
0,27575	0,1369398	13,69398
0,2687	0,1370177	13,70177
0,2616	0,13709	13,709
0,25455	0,1371572	13,71572
0,24745	0,1372241	13,72241
0,2404	0,1372855	13,72855
0,23335	0,1373515	13,73515
0,22625	0,1374111	13,74111
0,2192	0,137475	13,7475
0,2121	0,1375394	13,75394
0,20505	0,137597	13,7597
0,198	0,1376558	13,76558
0,1909	0,1377159	13,77159
0,18385	0,1377782	13,77782
0,17675	0,137832	13,7832
0,1697	0,1378917	13,78917
0,16265	0,1379454	13,79454
0,15555	0,1380039	13,80039
0,1485	0,1380632	13,80632
0,1414	0,1381144	13,81144
0,13435	0,1381683	13,81683
0,12725	0,1382221	13,82221
0,1202	0,1382801	13,82801
0,11315	0,1383339	13,83339
0,10605	0,1383891	13,83891
0,099	0,138439	13,8439
0,0919	0,1384899	13,84899
0,08485	0,1385462	13,85462
0,0778	0,138595	13,8595
0,0707	0,1386472	13,86472
0,06365	0,1386963	13,86963
0,05655	0,1387489	13,87489
0,0495	0,1388001	13,88001
0,0424	0,1388539	13,88539
0,03535	0,1389081	13,89081
0,0283	0,1389536	13,89536
0,0212	0,1390036	13,90036
0,01415	0,1390562	13,90562
0,00705	0,1391045	13,91045
0	0,1391554	13,91554