Folder: Scientific_Analysis_MN/Python/Cell_Characterization/Polars

Note: Python/Cell_Characterization/Polars/IBC_konst_Ref-0deg 2022-09-16 14-14-10.txt
Device Id	Operator	Recipe
IBC_konst_Ref-0deg	IS	ANA test.IV

Sample Area	Irradiance	Pre sweep delay	Bias Direction	Max Reverse Bias	Max Forward Bias	Num Sweep Points	Dwell Time	Current Limit	PVIV 10A I-AMP	Average	Dark Current	Rshunt V-Lo	Rshunt V-Hi
4.368100	1.0000	0.5000	0	0.0000	0.7000	100	50	200	0	0	0	-0.6000	-0.1000

Voc V	Isc A	Jsc mA/cm2	Imax A	Vmax V	Pmax mW	Fill Factor	Efficiency	R at Voc	R at Isc	Power W	RShunt ohms	Cell Temp start	Cell Temp end	Exposure	Time	Date
0.61631965	0.10887726	24.92554169	0.09651533	0.48273032	46.59087560	69.4317	10.6662	0.594541	1146.760	0.06027667	NaN	NaN	NaN	13.142	14:14:10	09/16/2022

Vmeas	Imeas
0.70000000	-0.19995150
0.69295000	-0.19994900
0.68585000	-0.19347800
0.67880000	-0.16583940
0.67170000	-0.14002690
0.66465000	-0.11635640
0.65760000	-0.09482355
0.65050000	-0.07453618
0.64345000	-0.05607568
0.63635000	-0.03917056
0.62930000	-0.02388637
0.62220000	-0.01009176
0.61515000	0.00239257
0.60810000	0.01360112
0.60100000	0.02379425
0.59395000	0.03290302
0.58685000	0.04111659
0.57980000	0.04839100
0.57275000	0.05494229
0.56565000	0.06082323
0.55860000	0.06605040
0.55150000	0.07074493
0.54445000	0.07488906
0.53735000	0.07864200
0.53030000	0.08193568
0.52325000	0.08488760
0.51615000	0.08752974
0.50910000	0.08986820
0.50200000	0.09195793
0.49495000	0.09379636
0.48790000	0.09543641
0.48080000	0.09689640
0.47375000	0.09818309
0.46665000	0.09932975
0.45960000	0.10032690
0.45250000	0.10121730
0.44545000	0.10199800
0.43840000	0.10268680
0.43130000	0.10329640
0.42425000	0.10382950
0.41715000	0.10430500
0.41010000	0.10471810
0.40305000	0.10503700
0.39595000	0.10536280
0.38890000	0.10565620
0.38180000	0.10592110
0.37475000	0.10616070
0.36770000	0.10637000
0.36060000	0.10657480
0.35355000	0.10675900
0.34645000	0.10692510
0.33940000	0.10707040
0.33230000	0.10722270
0.32525000	0.10734910
0.31820000	0.10747660
0.31110000	0.10759430
0.30405000	0.10770230
0.29695000	0.10780030
0.28990000	0.10790200
0.28285000	0.10798310
0.27575000	0.10806390
0.26870000	0.10814030
0.26160000	0.10821600
0.25455000	0.10827910
0.24745000	0.10834210
0.24040000	0.10839510
0.23335000	0.10844770
0.22625000	0.10848670
0.21920000	0.10853340
0.21210000	0.10856580
0.20505000	0.10859910
0.19800000	0.10862760
0.19090000	0.10865120
0.18385000	0.10867760
0.17675000	0.10869100
0.16970000	0.10871300
0.16265000	0.10873020
0.15555000	0.10874450
0.14850000	0.10875580
0.14140000	0.10876210
0.13435000	0.10877300
0.12725000	0.10878150
0.12020000	0.10878690
0.11315000	0.10879620
0.10605000	0.10879780
0.09900000	0.10880750
0.09190000	0.10881260
0.08485000	0.10881380
0.07780000	0.10881590
0.07070000	0.10882610
0.06365000	0.10883190
0.05655000	0.10883070
0.04950000	0.10882980
0.04240000	0.10883870
0.03535000	0.10884370
0.02830000	0.10884540
0.02120000	0.10884840
0.01415000	0.10885510
0.00705000	0.10885460
-0.00000000	0.10885800

Note: Python/Cell_Characterization/Polars/IBC_konst_Ref-10deg 2022-09-16 14-16-15.txt
Device Id	Operator	Recipe
IBC_konst_Ref-10deg	IS	ANA test.IV

Sample Area	Irradiance	Pre sweep delay	Bias Direction	Max Reverse Bias	Max Forward Bias	Num Sweep Points	Dwell Time	Current Limit	PVIV 10A I-AMP	Average	Dark Current	Rshunt V-Lo	Rshunt V-Hi
4.368100	1.0000	0.5000	0	0.0000	0.7000	100	50	200	0	0	0	-0.6000	-0.1000

Voc V	Isc A	Jsc mA/cm2	Imax A	Vmax V	Pmax mW	Fill Factor	Efficiency	R at Voc	R at Isc	Power W	RShunt ohms	Cell Temp start	Cell Temp end	Exposure	Time	Date
0.62850001	0.10563688	24.18371434	0.09390663	0.49457058	46.44345434	69.9526	10.6324	0.630599	1092.904	0.05981922	NaN	NaN	NaN	13.132	14:16:15	09/16/2022

Vmeas	Imeas
0.70000000	-0.19823590
0.69295000	-0.17025430
0.68585000	-0.14415190
0.67880000	-0.12009830
0.67170000	-0.09857754
0.66465000	-0.07824043
0.65760000	-0.05955401
0.65050000	-0.04245688
0.64345000	-0.02701804
0.63635000	-0.01299114
0.62930000	-0.00062122
0.62220000	0.01043080
0.61515000	0.02062537
0.60810000	0.02981919
0.60100000	0.03808933
0.59395000	0.04544970
0.58685000	0.05205493
0.57980000	0.05788973
0.57275000	0.06312349
0.56565000	0.06781244
0.55860000	0.07196935
0.55150000	0.07569528
0.54445000	0.07897888
0.53735000	0.08194394
0.53030000	0.08454341
0.52325000	0.08686704
0.51615000	0.08894126
0.50910000	0.09077200
0.50200000	0.09240260
0.49495000	0.09383153
0.48790000	0.09510287
0.48080000	0.09623106
0.47375000	0.09722114
0.46665000	0.09809880
0.45960000	0.09886311
0.45250000	0.09954229
0.44545000	0.10013720
0.43840000	0.10065980
0.43130000	0.10112200
0.42425000	0.10152800
0.41715000	0.10189390
0.41010000	0.10221460
0.40305000	0.10250400
0.39595000	0.10276510
0.38890000	0.10299960
0.38180000	0.10321340
0.37475000	0.10340480
0.36770000	0.10358200
0.36060000	0.10374620
0.35355000	0.10389780
0.34645000	0.10403710
0.33940000	0.10416800
0.33230000	0.10428950
0.32525000	0.10440290
0.31820000	0.10450970
0.31110000	0.10460920
0.30405000	0.10470060
0.29695000	0.10478580
0.28990000	0.10486580
0.28285000	0.10494060
0.27575000	0.10495640
0.26870000	0.10502040
0.26160000	0.10508130
0.25455000	0.10513340
0.24745000	0.10518220
0.24040000	0.10522850
0.23335000	0.10526460
0.22625000	0.10529950
0.21920000	0.10533190
0.21210000	0.10535660
0.20505000	0.10537970
0.19800000	0.10540420
0.19090000	0.10542980
0.18385000	0.10544620
0.17675000	0.10545670
0.16970000	0.10547100
0.16265000	0.10548320
0.15555000	0.10549250
0.14850000	0.10550500
0.14140000	0.10551770
0.13435000	0.10552150
0.12725000	0.10553030
0.12020000	0.10553830
0.11315000	0.10554330
0.10605000	0.10554660
0.09900000	0.10555510
0.09190000	0.10556100
0.08485000	0.10556470
0.07780000	0.10557310
0.07070000	0.10557430
0.06365000	0.10558150
0.05655000	0.10558790
0.04950000	0.10559880
0.04240000	0.10559550
0.03535000	0.10559760
0.02830000	0.10560930
0.02120000	0.10561270
0.01415000	0.10561350
0.00705000	0.10562070
-0.00000000	0.10562700

Note: README.md
# Origin Pro and Python

This repository mostly contains useful information for the students of the
Micro and Nanotechnologies course in NOVA School of Science and Technology.

The information here provided is a set of utilities and templates that
the students can use as helpers for data analysis. These tools are provided
for both [Origin Pro](./OriginPro/) and [Python](./Python/).

File: IBC_konst_400nmTiO2-0deg 2022-09-16 13-34-58.txt
Device Id	Operator	Recipe
IBC_konst_400nmTiO2-0deg	IS	ANA test,IV

Sample Area	Irradiance	Pre sweep delay	Bias Direction	Max Reverse Bias	Max Forward Bias	Num Sweep Points	Dwell Time	Current Limit	PVIV 10A I-AMP	Average	Dark Current	Rshunt V-Lo	Rshunt V-Hi
4,3681	1	0,5	0	0	0,7	100	50	200	0	0	0	-0,6	-0,1

Voc V	Isc A	Jsc mA/cm2	Imax A	Vmax V	Pmax mW	Fill Factor	Efficiency	R at Voc	R at Isc	Power W	RShunt ohms	Cell Temp start	Cell Temp end	Exposure	Time	Date
0,60209591	0,10773244	24,66345497	0,09042388	0,46576485	42,1162635	64,9288	9,6418	0,729054	48,279	0,05565524	NaN	NaN	NaN	13,141	13:34:58	09/16/2022

Vmeas	Imeas
0,7	-0,1996925	-19,96925
0,69295	-0,1917212	-19,17212
0,68585	-0,1720378	-17,20378
0,6788	-0,1531541	-15,31541
0,6717	-0,134919	-13,4919
0,66465	-0,1175275	-11,75275
0,6576	-0,1009862	-10,09862
0,6505	-0,08590367	-8,590367
0,64345	-0,07081445	-7,081445
0,63635	-0,0564738	-5,64738
0,6293	-0,04302231	-4,302231
0,6222	-0,03033759	-3,033759
0,61515	-0,01858228	-1,858228
0,6081	-0,00792797	-0,792797
0,601	0,00239913	0,239913
0,59395	0,01135998	1,135998
0,58685	0,02019854	2,019854
0,5798	0,02823875	2,823875
0,57275	0,03563955	3,563955
0,56565	0,04242758	4,242758
0,5586	0,04857663	4,857663
0,5515	0,05419709	5,419709
0,54445	0,05923669	5,923669
0,53735	0,0638545	6,38545
0,5303	0,0679573	6,79573
0,52325	0,07166946	7,166946
0,51615	0,07501963	7,501963
0,5091	0,07800356	7,800356
0,502	0,08068772	8,068772
0,49495	0,08306042	8,306042
0,4879	0,08518828	8,518828
0,4808	0,08708609	8,708609
0,47375	0,08876301	8,876301
0,46665	0,09025372	9,025372
0,4596	0,09155726	9,155726
0,4525	0,09271836	9,271836
0,44545	0,09373377	9,373377
0,4384	0,09462447	9,462447
0,4313	0,09541064	9,541064
0,42425	0,09609258	9,609258
0,41715	0,09669825	9,669825
0,4101	0,09722689	9,722689
0,40305	0,09769284	9,769284
0,39595	0,09810782	9,810782
0,3889	0,09847407	9,847407
0,3818	0,09880628	9,880628
0,37475	0,09910426	9,910426
0,3677	0,099377	9,9377
0,3606	0,09962935	9,962935
0,35355	0,0998611	9,98611
0,34645	0,1000813	10,00813
0,3394	0,1002875	10,02875
0,3323	0,1004849	10,04849
0,32525	0,1006735	10,06735
0,3182	0,1008539	10,08539
0,3111	0,1010316	10,10316
0,30405	0,1012045	10,12045
0,29695	0,1013746	10,13746
0,2899	0,1015408	10,15408
0,28285	0,1017035	10,17035
0,27575	0,1018667	10,18667
0,2687	0,1020279	10,20279
0,2616	0,1021878	10,21878
0,25455	0,1023459	10,23459
0,24745	0,1025037	10,25037
0,2404	0,1026586	10,26586
0,23335	0,1028139	10,28139
0,22625	0,1029695	10,29695
0,2192	0,1031235	10,31235
0,2121	0,1032781	10,32781
0,20505	0,1034299	10,34299
0,198	0,103581	10,3581
0,1909	0,1037336	10,37336
0,18385	0,1038844	10,38844
0,17675	0,1040362	10,40362
0,1697	0,1041855	10,41855
0,16265	0,1043359	10,43359
0,15555	0,1044853	10,44853
0,1485	0,1046355	10,46355
0,1414	0,1047852	10,47852
0,13435	0,1049323	10,49323
0,12725	0,1051283	10,51283
0,1202	0,1052779	10,52779
0,11315	0,1054209	10,54209
0,10605	0,1055656	10,55656
0,099	0,1057139	10,57139
0,0919	0,1058573	10,58573
0,08485	0,1060061	10,60061
0,0778	0,1061495	10,61495
0,0707	0,1062878	10,62878
0,06365	0,1064316	10,64316
0,05655	0,1065754	10,65754
0,0495	0,1067162	10,67162
0,0424	0,1068587	10,68587
0,03535	0,1069975	10,69975
0,0283	0,107132	10,7132
0,0212	0,1072766	10,72766
0,01415	0,1074129	10,74129
0,00705	0,1075512	10,75512
0	0,1076911	10,76911

File: IBC_konst_400nmTiO2-10deg 2022-09-16 13-27-04.txt
Device Id	Operator	Recipe
IBC_konst_400nmTiO2-10deg	IS	ANA test,IV

Sample Area	Irradiance	Pre sweep delay	Bias Direction	Max Reverse Bias	Max Forward Bias	Num Sweep Points	Dwell Time	Current Limit	PVIV 10A I-AMP	Average	Dark Current	Rshunt V-Lo	Rshunt V-Hi
4,3681	1	0,5	0	0	0,7	100	50	200	0	0	0	-0,6	-0,1

Voc V	Isc A	Jsc mA/cm2	Imax A	Vmax V	Pmax mW	Fill Factor	Efficiency	R at Voc	R at Isc	Power W	RShunt ohms	Cell Temp start	Cell Temp end	Exposure	Time	Date
0,59726758	0,10613039	24,29669491	0,08900213	0,46149692	41,0742095	64,7978	9,4032	0,724153	48,148	0,05433602	NaN	NaN	NaN	13,129	13:27:04	09/16/2022

Vmeas	Imeas
0,7	-0,1995941	-19,95941
0,69295	-0,1995903	-19,95903
0,68585	-0,185062	-18,5062
0,6788	-0,165731	-16,5731
0,6717	-0,1470388	-14,70388
0,66465	-0,1291733	-12,91733
0,6576	-0,112156	-11,2156
0,6505	-0,09656185	-9,656185
0,64345	-0,08098919	-8,098919
0,63635	-0,06615508	-6,615508
0,6293	-0,05221257	-5,221257
0,6222	-0,03903625	-3,903625
0,61515	-0,02680404	-2,680404
0,6081	-0,01531265	-1,531265
0,601	-0,00484788	-0,484788
0,59395	0,00510317	0,510317
0,58685	0,01391163	1,391163
0,5798	0,02234551	2,234551
0,57275	0,03012527	3,012527
0,56565	0,03727153	3,727153
0,5586	0,04375437	4,375437
0,5515	0,04968992	4,968992
0,54445	0,05501572	5,501572
0,53735	0,05990427	5,990427
0,5303	0,06424965	6,424965
0,52325	0,06818473	6,818473
0,51615	0,07173798	7,173798
0,5091	0,07490931	7,490931
0,502	0,07776358	7,776358
0,49495	0,08028826	8,028826
0,4879	0,08255424	8,255424
0,4808	0,08457813	8,457813
0,47375	0,08636899	8,636899
0,46665	0,08796357	8,796357
0,4596	0,08936054	8,936054
0,4525	0,09060545	9,060545
0,44545	0,09169571	9,169571
0,4384	0,09265424	9,265424
0,4313	0,09349894	9,349894
0,42425	0,09423265	9,423265
0,41715	0,09488297	9,488297
0,4101	0,09544998	9,544998
0,40305	0,09594937	9,594937
0,39595	0,09639323	9,639323
0,3889	0,09678388	9,678388
0,3818	0,0971363	9,71363
0,37475	0,09745167	9,745167
0,3677	0,09773817	9,773817
0,3606	0,09800173	9,800173
0,35355	0,09824205	9,824205
0,34645	0,09846907	9,846907
0,3394	0,09868035	9,868035
0,3323	0,09888255	9,888255
0,32525	0,09907515	9,907515
0,3182	0,09926001	9,926001
0,3111	0,09944007	9,944007
0,30405	0,09961452	9,961452
0,29695	0,09978625	9,978625
0,2899	0,09995414	9,995414
0,28285	0,100118	10,0118
0,27575	0,1002827	10,02827
0,2687	0,100444	10,0444
0,2616	0,1006043	10,06043
0,25455	0,1007624	10,07624
0,24745	0,1009205	10,09205
0,2404	0,1010762	10,10762
0,23335	0,1012313	10,12313
0,22625	0,1013867	10,13867
0,2192	0,1015403	10,15403
0,2121	0,1016938	10,16938
0,20505	0,1018446	10,18446
0,198	0,1019959	10,19959
0,1909	0,102147	10,2147
0,18385	0,1022981	10,22981
0,17675	0,1024492	10,24492
0,1697	0,1025983	10,25983
0,16265	0,1027488	10,27488
0,15555	0,1028996	10,28996
0,1485	0,1030484	10,30484
0,1414	0,1031979	10,31979
0,13435	0,1033445	10,33445
0,12725	0,103492	10,3492
0,1202	0,1036389	10,36389
0,11315	0,1037843	10,37843
0,10605	0,1039309	10,39309
0,099	0,1040754	10,40754
0,0919	0,1042204	10,42204
0,08485	0,1043639	10,43639
0,0778	0,1045084	10,45084
0,0707	0,1046534	10,46534
0,06365	0,1047955	10,47955
0,05655	0,104937	10,4937
0,0495	0,1051351	10,51351
0,0424	0,1052747	10,52747
0,03535	0,1054172	10,54172
0,0283	0,1055526	10,55526
0,0212	0,1056909	10,56909
0,01415	0,1058329	10,58329
0,00705	0,1059663	10,59663
0	0,1061071	10,61071

File: IBC_konst_400nmTiO2-20deg 2022-09-16 13-29-02.txt
Device Id	Operator	Recipe
IBC_konst_400nmTiO2-20deg	IS	ANA test,IV

Sample Area	Irradiance	Pre sweep delay	Bias Direction	Max Reverse Bias	Max Forward Bias	Num Sweep Points	Dwell Time	Current Limit	PVIV 10A I-AMP	Average	Dark Current	Rshunt V-Lo	Rshunt V-Hi
4,3681	1	0,5	0	0	0,7	100	50	200	0	0	0	-0,6	-0,1

Voc V	Isc A	Jsc mA/cm2	Imax A	Vmax V	Pmax mW	Fill Factor	Efficiency	R at Voc	R at Isc	Power W	RShunt ohms	Cell Temp start	Cell Temp end	Exposure	Time	Date
0,59957127	0,10209847	23,3736564	0,08551222	0,46461131	39,72994367	64,902	9,0955	0,762986	49,86	0,05248495	NaN	NaN	NaN	13,02	13:29:02	09/16/2022

Vmeas	Imeas
0,7	-0,1996264	-19,96264
0,69295	-0,1956634	-19,56634
0,68585	-0,1759457	-17,59457
0,6788	-0,1570502	-15,70502
0,6717	-0,1388006	-13,88006
0,66465	-0,1213912	-12,13912
0,6576	-0,1048492	-10,48492
0,6505	-0,08973946	-8,973946
0,64345	-0,07466045	-7,466045
0,63635	-0,06033607	-6,033607
0,6293	-0,04690176	-4,690176
0,6222	-0,03423969	-3,423969
0,61515	-0,02251265	-2,251265
0,6081	-0,01152994	-1,152994
0,601	-0,00156671	-0,156671
0,59395	0,00788753	0,788753
0,58685	0,01619892	1,619892
0,5798	0,02417	2,417
0,57275	0,0315007	3,15007
0,56565	0,03821642	3,821642
0,5586	0,04429054	4,429054
0,5515	0,04983564	4,983564
0,54445	0,05479875	5,479875
0,53735	0,05934322	5,934322
0,5303	0,06337176	6,337176
0,52325	0,06701097	6,701097
0,51615	0,07029086	7,029086
0,5091	0,07320989	7,320989
0,502	0,07583137	7,583137
0,49495	0,07814572	7,814572
0,4879	0,08021628	8,021628
0,4808	0,08206108	8,206108
0,47375	0,08368769	8,368769
0,46665	0,08513233	8,513233
0,4596	0,08639306	8,639306
0,4525	0,08751369	8,751369
0,44545	0,08849237	8,849237
0,4384	0,08935007	8,935007
0,4313	0,09010579	9,010579
0,42425	0,09076089	9,076089
0,41715	0,09134137	9,134137
0,4101	0,09184776	9,184776
0,40305	0,09229422	9,229422
0,39595	0,0926916	9,26916
0,3889	0,09304315	9,304315
0,3818	0,09336247	9,336247
0,37475	0,09364983	9,364983
0,3677	0,09391236	9,391236
0,3606	0,09415714	9,415714
0,35355	0,09438264	9,438264
0,34645	0,09459683	9,459683
0,3394	0,09479826	9,479826
0,3323	0,094992	9,4992
0,32525	0,09517803	9,517803
0,3182	0,09535759	9,535759
0,3111	0,09553417	9,553417
0,30405	0,09570568	9,570568
0,29695	0,09587409	9,587409
0,2899	0,09603965	9,603965
0,28285	0,09620271	9,620271
0,27575	0,0963655	9,63655
0,2687	0,09652555	9,652555
0,2616	0,09668499	9,668499
0,25455	0,09684252	9,684252
0,24745	0,09700085	9,700085
0,2404	0,09715564	9,715564
0,23335	0,09731023	9,731023
0,22625	0,09746339	9,746339
0,2192	0,09761569	9,761569
0,2121	0,09776823	9,776823
0,20505	0,09791983	9,791983
0,198	0,09807009	9,807009
0,1909	0,098221	9,8221
0,18385	0,09837139	9,837139
0,17675	0,09852121	9,852121
0,1697	0,09866911	9,866911
0,16265	0,09881821	9,881821
0,15555	0,09896751	9,896751
0,1485	0,09911517	9,911517
0,1414	0,09926287	9,926287
0,13435	0,09940897	9,940897
0,12725	0,09955483	9,955483
0,1202	0,09969864	9,969864
0,11315	0,09984226	9,984226
0,10605	0,09998683	9,998683
0,099	0,1001296	10,01296
0,0919	0,1002726	10,02726
0,08485	0,1004146	10,04146
0,0778	0,1005576	10,05576
0,0707	0,1006987	10,06987
0,06365	0,1008371	10,08371
0,05655	0,100978	10,0978
0,0495	0,1011162	10,11162
0,0424	0,1012546	10,12546
0,03535	0,101391	10,1391
0,0283	0,1015253	10,15253
0,0212	0,101661	10,1661
0,01415	0,1017949	10,17949
0,00705	0,1019299	10,19299
0	0,1020652	10,20652

File: IBC_konst_400nmTiO2-30deg 2022-09-16 13-29-51.txt
Device Id	Operator	Recipe
IBC_konst_400nmTiO2-30deg	IS	ANA test,IV

Sample Area	Irradiance	Pre sweep delay	Bias Direction	Max Reverse Bias	Max Forward Bias	Num Sweep Points	Dwell Time	Current Limit	PVIV 10A I-AMP	Average	Dark Current	Rshunt V-Lo	Rshunt V-Hi
4,3681	1	0,5	0	0	0,7	100	50	200	0	0	0	-0,6	-0,1

Voc V	Isc A	Jsc mA/cm2	Imax A	Vmax V	Pmax mW	Fill Factor	Efficiency	R at Voc	R at Isc	Power W	RShunt ohms	Cell Temp start	Cell Temp end	Exposure	Time	Date
0,59534594	0,09439452	21,6099722	0,07880121	0,46285376	36,47343441	64,9024	8,35	0,800345	51,808	0,04816571	NaN	NaN	NaN	13,018	13:29:51	09/16/2022

Vmeas	Imeas
0,7	-0,1996316	-19,96316
0,69295	-0,1996317	-19,96317
0,68585	-0,1806672	-18,06672
0,6788	-0,1617459	-16,17459
0,6717	-0,1434914	-14,34914
0,66465	-0,1260938	-12,60938
0,6576	-0,1095656	-10,95656
0,6505	-0,09443124	-9,443124
0,64345	-0,07939477	-7,939477
0,63635	-0,06511916	-6,511916
0,6293	-0,05174782	-5,174782
0,6222	-0,03915767	-3,915767
0,61515	-0,02751173	-2,751173
0,6081	-0,0166171	-1,66171
0,601	-0,00673418	-0,673418
0,59395	0,00260882	0,260882
0,58685	0,01083919	1,083919
0,5798	0,01868662	1,868662
0,57275	0,02589292	2,589292
0,56565	0,03248782	3,248782
0,5586	0,03844381	3,844381
0,5515	0,04387698	4,387698
0,54445	0,04873006	4,873006
0,53735	0,05316794	5,316794
0,5303	0,05709555	5,709555
0,52325	0,06063837	6,063837
0,51615	0,06382377	6,382377
0,5091	0,06665436	6,665436
0,502	0,06918936	6,918936
0,49495	0,07142273	7,142273
0,4879	0,07341784	7,341784
0,4808	0,07519159	7,519159
0,47375	0,07675137	7,675137
0,46665	0,0781339	7,81339
0,4596	0,07933801	7,933801
0,4525	0,08040574	8,040574
0,44545	0,0813366	8,13366
0,4384	0,08215111	8,215111
0,4313	0,08286677	8,286677
0,42425	0,08348651	8,348651
0,41715	0,08403569	8,403569
0,4101	0,08451495	8,451495
0,40305	0,08493852	8,493852
0,39595	0,08531467	8,531467
0,3889	0,08564684	8,564684
0,3818	0,08594983	8,594983
0,37475	0,0862231	8,62231
0,3677	0,08647329	8,647329
0,3606	0,08670586	8,670586
0,35355	0,08692177	8,692177
0,34645	0,08712679	8,712679
0,3394	0,08732017	8,732017
0,3323	0,08750667	8,750667
0,32525	0,08768582	8,768582
0,3182	0,08785885	8,785885
0,3111	0,08802859	8,802859
0,30405	0,08819484	8,819484
0,29695	0,08835938	8,835938
0,2899	0,08852072	8,852072
0,28285	0,08867992	8,867992
0,27575	0,08883729	8,883729
0,2687	0,08899286	8,899286
0,2616	0,08914738	8,914738
0,25455	0,08930133	8,930133
0,24745	0,08945534	8,945534
0,2404	0,08960702	8,960702
0,23335	0,08975853	8,975853
0,22625	0,08990959	8,990959
0,2192	0,09005871	9,005871
0,2121	0,09020839	9,020839
0,20505	0,0903559	9,03559
0,198	0,09050308	9,050308
0,1909	0,09065065	9,065065
0,18385	0,09079635	9,079635
0,17675	0,0909422	9,09422
0,1697	0,0910864	9,10864
0,16265	0,09123091	9,123091
0,15555	0,09137607	9,137607
0,1485	0,09152052	9,152052
0,1414	0,09166531	9,166531
0,13435	0,09180701	9,180701
0,12725	0,09194794	9,194794
0,1202	0,09208883	9,208883
0,11315	0,09222943	9,222943
0,10605	0,09236879	9,236879
0,099	0,09250672	9,250672
0,0919	0,09264522	9,264522
0,08485	0,09278139	9,278139
0,0778	0,09291711	9,291711
0,0707	0,09305232	9,305232
0,06365	0,09318537	9,318537
0,05655	0,09331985	9,331985
0,0495	0,09345269	9,345269
0,0424	0,09358359	9,358359
0,03535	0,09371295	9,371295
0,0283	0,09384115	9,384115
0,0212	0,09396984	9,396984
0,01415	0,09409618	9,409618
0,00705	0,09422328	9,422328
0	0,09435174	9,435174

File: IBC_konst_400nmTiO2-40deg 2022-09-16 13-30-40.txt
Device Id	Operator	Recipe
IBC_konst_400nmTiO2-40deg	IS	ANA test,IV

Sample Area	Irradiance	Pre sweep delay	Bias Direction	Max Reverse Bias	Max Forward Bias	Num Sweep Points	Dwell Time	Current Limit	PVIV 10A I-AMP	Average	Dark Current	Rshunt V-Lo	Rshunt V-Hi
4,3681	1	0,5	0	0	0,7	100	50	200	0	0	0	-0,6	-0,1

Voc V	Isc A	Jsc mA/cm2	Imax A	Vmax V	Pmax mW	Fill Factor	Efficiency	R at Voc	R at Isc	Power W	RShunt ohms	Cell Temp start	Cell Temp end	Exposure	Time	Date
0,59037993	0,08373819	19,17039207	0,06952509	0,46075562	32,03407673	64,7973	7,3336	0,857217	55,456	0,04229901	NaN	NaN	NaN	13,018	13:30:40	09/16/2022

Vmeas	Imeas
0,7	-0,199639	-19,9639
0,69295	-0,1996381	-19,96381
0,68585	-0,1852123	-18,52123
0,6788	-0,1663618	-16,63618
0,6717	-0,1481872	-14,81872
0,66465	-0,1308792	-13,08792
0,6576	-0,11446	-11,446
0,6505	-0,09938169	-9,938169
0,64345	-0,0844886	-8,44886
0,63635	-0,07037263	-7,037263
0,6293	-0,05717671	-5,717671
0,6222	-0,04477977	-4,477977
0,61515	-0,0333356	-3,33356
0,6081	-0,02265633	-2,265633
0,601	-0,0127369	-1,27369
0,59395	-0,00383256	-0,383256
0,58685	0,00457443	0,457443
0,5798	0,01190136	1,190136
0,57275	0,01888159	1,888159
0,56565	0,02524814	2,524814
0,5586	0,03098284	3,098284
0,5515	0,0361939	3,61939
0,54445	0,04083773	4,083773
0,53735	0,04507021	4,507021
0,5303	0,04880583	4,880583
0,52325	0,05216672	5,216672
0,51615	0,05518064	5,518064
0,5091	0,05785224	5,785224
0,502	0,06023895	6,023895
0,49495	0,06233629	6,233629
0,4879	0,06420276	6,420276
0,4808	0,06585705	6,585705
0,47375	0,06730654	6,730654
0,46665	0,0685866	6,85866
0,4596	0,06969668	6,969668
0,4525	0,070677	7,0677
0,44545	0,07152933	7,152933
0,4384	0,0722721	7,22721
0,4313	0,07292354	7,292354
0,42425	0,0734864	7,34864
0,41715	0,07398439	7,398439
0,4101	0,07441807	7,441807
0,40305	0,07480103	7,480103
0,39595	0,07514244	7,514244
0,3889	0,07544664	7,544664
0,3818	0,07572398	7,572398
0,37475	0,07597636	7,597636
0,3677	0,07620779	7,620779
0,3606	0,07642566	7,642566
0,35355	0,07662774	7,662774
0,34645	0,07682195	7,682195
0,3394	0,0770059	7,70059
0,3323	0,07718398	7,718398
0,32525	0,07735533	7,735533
0,3182	0,07752191	7,752191
0,3111	0,07768622	7,768622
0,30405	0,07784791	7,784791
0,29695	0,07800673	7,800673
0,2899	0,07816173	7,816173
0,28285	0,07831392	7,831392
0,27575	0,07846729	7,846729
0,2687	0,07861832	7,861832
0,2616	0,07876924	7,876924
0,25455	0,07891831	7,891831
0,24745	0,07906666	7,906666
0,2404	0,07921253	7,921253
0,23335	0,07935873	7,935873
0,22625	0,07950512	7,950512
0,2192	0,07964979	7,964979
0,2121	0,07979442	7,979442
0,20505	0,07993743	7,993743
0,198	0,08008008	8,008008
0,1909	0,08022282	8,022282
0,18385	0,08036339	8,036339
0,17675	0,08050334	8,050334
0,1697	0,08064112	8,064112
0,16265	0,08077831	8,077831
0,15555	0,08091626	8,091626
0,1485	0,08105259	8,105259
0,1414	0,08118955	8,118955
0,13435	0,08132317	8,132317
0,12725	0,08145626	8,145626
0,1202	0,08158904	8,158904
0,11315	0,08171998	8,171998
0,10605	0,08185103	8,185103
0,099	0,08197832	8,197832
0,0919	0,0821078	8,21078
0,08485	0,08223508	8,223508
0,0778	0,08236186	8,236186
0,0707	0,08248758	8,248758
0,06365	0,08261091	8,261091
0,05655	0,08273403	8,273403
0,0495	0,08285654	8,285654
0,0424	0,08297881	8,297881
0,03535	0,08309913	8,309913
0,0283	0,08321919	8,321919
0,0212	0,08333947	8,333947
0,01415	0,0834576	8,34576
0,00705	0,08357488	8,357488
0	0,08369385	8,369385