Folder: Scientific_Analysis_MN/Python/Cell_Characterization/Polars (part 3)

File: IBC_konst_500nmTiO2-30deg 2022-09-16 13-46-33.txt
Device Id	Operator	Recipe
IBC_konst_500nmTiO2-30deg	IS	ANA test,IV

Sample Area	Irradiance	Pre sweep delay	Bias Direction	Max Reverse Bias	Max Forward Bias	Num Sweep Points	Dwell Time	Current Limit	PVIV 10A I-AMP	Average	Dark Current	Rshunt V-Lo	Rshunt V-Hi
4,3681	1	0,5	0	0	0,7	100	50	200	0	0	0	-0,6	-0,1

Voc V	Isc A	Jsc mA/cm2	Imax A	Vmax V	Pmax mW	Fill Factor	Efficiency	R at Voc	R at Isc	Power W	RShunt ohms	Cell Temp start	Cell Temp end	Exposure	Time	Date
0,6013511	0,11425074	26,1557071	0,10448634	0,47703607	49,8437513	72,5477	11,4109	0,557664	1483,364	0,0626257	NaN	NaN	NaN	13,136	13:46:33	09/16/2022

Vmeas	Imeas
0,7	-0,2000151	-20,00151
0,69295	-0,2000184	-20,00184
0,68585	-0,2000154	-20,00154
0,6788	-0,2000147	-20,00147
0,6717	-0,1823999	-18,23999
0,66465	-0,1595238	-15,95238
0,6576	-0,1374511	-13,74511
0,6505	-0,1162436	-11,62436
0,64345	-0,09690891	-9,690891
0,63635	-0,0777178	-7,77178
0,6293	-0,05970045	-5,970045
0,6222	-0,04270974	-4,270974
0,61515	-0,02698856	-2,698856
0,6081	-0,01230147	-1,230147
0,601	0,00105086	0,105086
0,59395	0,01304972	1,304972
0,58685	0,02459027	2,459027
0,5798	0,03497836	3,497836
0,57275	0,04442814	4,442814
0,56565	0,05297327	5,297327
0,5586	0,06059122	6,059122
0,5515	0,06743273	6,743273
0,54445	0,07344713	7,344713
0,53735	0,07885116	7,885116
0,5303	0,0835449	8,35449
0,52325	0,08769841	8,769841
0,51615	0,09135458	9,135458
0,5091	0,09453709	9,453709
0,502	0,09732756	9,732756
0,49495	0,09973311	9,973311
0,4879	0,1018354	10,18354
0,4808	0,103664	10,3664
0,47375	0,1051425	10,51425
0,46665	0,1065018	10,65018
0,4596	0,1076641	10,76641
0,4525	0,1086626	10,86626
0,44545	0,109514	10,9514
0,4384	0,1102316	11,02316
0,4313	0,1108488	11,08488
0,42425	0,1113617	11,13617
0,41715	0,1118074	11,18074
0,4101	0,1121647	11,21647
0,40305	0,1124695	11,24695
0,39595	0,112729	11,2729
0,3889	0,1129463	11,29463
0,3818	0,1131292	11,31292
0,37475	0,1132764	11,32764
0,3677	0,1134058	11,34058
0,3606	0,1135113	11,35113
0,35355	0,1135984	11,35984
0,34645	0,1136711	11,36711
0,3394	0,1137346	11,37346
0,3323	0,1137858	11,37858
0,32525	0,1138355	11,38355
0,3182	0,1138687	11,38687
0,3111	0,1139014	11,39014
0,30405	0,11393	11,393
0,29695	0,1139503	11,39503
0,2899	0,1139733	11,39733
0,28285	0,1139889	11,39889
0,27575	0,114007	11,4007
0,2687	0,1140209	11,40209
0,2616	0,1140352	11,40352
0,25455	0,1140418	11,40418
0,24745	0,1140519	11,40519
0,2404	0,1140629	11,40629
0,23335	0,1140734	11,40734
0,22625	0,1140797	11,40797
0,2192	0,1140924	11,40924
0,2121	0,1140995	11,40995
0,20505	0,1141054	11,41054
0,198	0,1141113	11,41113
0,1909	0,1141129	11,41129
0,18385	0,1141231	11,41231
0,17675	0,114126	11,4126
0,1697	0,1141365	11,41365
0,16265	0,114142	11,4142
0,15555	0,1141449	11,41449
0,1485	0,1141516	11,41516
0,1414	0,1141575	11,41575
0,13435	0,1141634	11,41634
0,12725	0,1141634	11,41634
0,1202	0,1141662	11,41662
0,11315	0,1141765	11,41765
0,10605	0,1141794	11,41794
0,099	0,1141874	11,41874
0,0919	0,1141869	11,41869
0,08485	0,1141944	11,41944
0,0778	0,1141996	11,41996
0,0707	0,1142028	11,42028
0,06365	0,1142088	11,42088
0,05655	0,1142142	11,42142
0,0495	0,114216	11,4216
0,0424	0,11422	11,422
0,03535	0,1142281	11,42281
0,0283	0,114237	11,4237
0,0212	0,1142362	11,42362
0,01415	0,1142399	11,42399
0,00705	0,114245	11,4245
0	0,1142465	11,42465

File: IBC_konst_500nmTiO2-40deg 2022-09-16 13-47-24.txt
Device Id	Operator	Recipe
IBC_konst_500nmTiO2-40deg	IS	ANA test,IV

Sample Area	Irradiance	Pre sweep delay	Bias Direction	Max Reverse Bias	Max Forward Bias	Num Sweep Points	Dwell Time	Current Limit	PVIV 10A I-AMP	Average	Dark Current	Rshunt V-Lo	Rshunt V-Hi
4,3681	1	0,5	0	0	0,7	100	50	200	0	0	0	-0,6	-0,1

Voc V	Isc A	Jsc mA/cm2	Imax A	Vmax V	Pmax mW	Fill Factor	Efficiency	R at Voc	R at Isc	Power W	RShunt ohms	Cell Temp start	Cell Temp end	Exposure	Time	Date
0,59869715	0,10137817	23,20875679	0,09296007	0,47693563	44,33596824	73,0474	10,1499	0,599997	1652,804	0,05548841	NaN	NaN	NaN	13,023	13:47:24	09/16/2022

Vmeas	Imeas
0,7	-0,200019	-20,0019
0,69295	-0,200016	-20,0016
0,68585	-0,2000181	-20,00181
0,6788	-0,2000206	-20,00206
0,6717	-0,1819547	-18,19547
0,66465	-0,1594529	-15,94529
0,6576	-0,1377775	-13,77775
0,6505	-0,1170108	-11,70108
0,64345	-0,09808125	-9,808125
0,63635	-0,07938815	-7,938815
0,6293	-0,06188962	-6,188962
0,6222	-0,04544593	-4,544593
0,61515	-0,03028296	-3,028296
0,6081	-0,01616569	-1,616569
0,601	-0,0033763	-0,33763
0,59395	0,00858158	0,858158
0,58685	0,01910812	1,910812
0,5798	0,02891863	2,891863
0,57275	0,03779775	3,779775
0,56565	0,04579065	4,579065
0,5586	0,05288224	5,288224
0,5515	0,05922195	5,922195
0,54445	0,0647705	6,47705
0,53735	0,06973048	6,973048
0,5303	0,07402154	7,402154
0,52325	0,07780237	7,780237
0,51615	0,0811228	8,11228
0,5091	0,08400142	8,400142
0,502	0,08651591	8,651591
0,49495	0,0886741	8,86741
0,4879	0,09055052	9,055052
0,4808	0,09217153	9,217153
0,47375	0,09356228	9,356228
0,46665	0,0947583	9,47583
0,4596	0,09576992	9,576992
0,4525	0,09663847	9,663847
0,44545	0,09737222	9,737222
0,4384	0,09799283	9,799283
0,4313	0,09851866	9,851866
0,42425	0,09895638	9,895638
0,41715	0,0993286	9,93286
0,4101	0,09963406	9,963406
0,40305	0,09989069	9,989069
0,39595	0,1001063	10,01063
0,3889	0,1002841	10,02841
0,3818	0,1004335	10,04335
0,37475	0,1005574	10,05574
0,3677	0,100661	10,0661
0,3606	0,100748	10,0748
0,35355	0,1008216	10,08216
0,34645	0,100884	10,0884
0,3394	0,1009336	10,09336
0,3323	0,1009766	10,09766
0,32525	0,1010128	10,10128
0,3182	0,1010426	10,10426
0,3111	0,1010699	10,10699
0,30405	0,1010918	10,10918
0,29695	0,1011115	10,11115
0,2899	0,1011287	10,11287
0,28285	0,101144	10,1144
0,27575	0,1011577	10,11577
0,2687	0,1011693	10,11693
0,2616	0,10118	10,118
0,25455	0,1011892	10,11892
0,24745	0,1011988	10,11988
0,2404	0,1012078	10,12078
0,23335	0,1012165	10,12165
0,22625	0,1012239	10,12239
0,2192	0,1012308	10,12308
0,2121	0,1012372	10,12372
0,20505	0,101243	10,1243
0,198	0,1012485	10,12485
0,1909	0,1012546	10,12546
0,18385	0,1012597	10,12597
0,17675	0,101266	10,1266
0,1697	0,101272	10,1272
0,16265	0,1012775	10,12775
0,15555	0,1012834	10,12834
0,1485	0,101288	10,1288
0,1414	0,1012926	10,12926
0,13435	0,1012971	10,12971
0,12725	0,1013013	10,13013
0,1202	0,1013057	10,13057
0,11315	0,1013104	10,13104
0,10605	0,1013156	10,13156
0,099	0,1013207	10,13207
0,0919	0,1013251	10,13251
0,08485	0,1013292	10,13292
0,0778	0,1013347	10,13347
0,0707	0,1013384	10,13384
0,06365	0,1013425	10,13425
0,05655	0,1013466	10,13466
0,0495	0,1013514	10,13514
0,0424	0,1013573	10,13573
0,03535	0,1013599	10,13599
0,0283	0,1013626	10,13626
0,0212	0,1013625	10,13625
0,01415	0,1013566	10,13566
0,00705	0,1013669	10,13669
0	0,1013781	10,13781

File: IBC_konst_500nmTiO2-50deg 2022-09-16 13-48-16.txt
Device Id	Operator	Recipe
IBC_konst_500nmTiO2-40deg	IS	ANA test,IV

Sample Area	Irradiance	Pre sweep delay	Bias Direction	Max Reverse Bias	Max Forward Bias	Num Sweep Points	Dwell Time	Current Limit	PVIV 10A I-AMP	Average	Dark Current	Rshunt V-Lo	Rshunt V-Hi
4,3681	1	0,5	0	0	0,7	100	50	200	0	0	0	-0,6	-0,1

Voc V	Isc A	Jsc mA/cm2	Imax A	Vmax V	Pmax mW	Fill Factor	Efficiency	R at Voc	R at Isc	Power W	RShunt ohms	Cell Temp start	Cell Temp end	Exposure	Time	Date
0,59331478	0,08314722	19,03509988	0,07647669	0,47539021	36,35626789	73,6964	8,3231	0,67231	1857,914	0,04524346	NaN	NaN	NaN	13,244	13:48:16	09/16/2022

Vmeas	Imeas
0,7	-0,2000183	-20,00183
0,69295	-0,2000147	-20,00147
0,68585	-0,2000177	-20,00177
0,6788	-0,200019	-20,0019
0,6717	-0,1852278	-18,52278
0,66465	-0,1630899	-16,30899
0,6576	-0,1418283	-14,18283
0,6505	-0,1215177	-12,15177
0,64345	-0,1023883	-10,23883
0,63635	-0,0847688	-8,47688
0,6293	-0,06784021	-6,784021
0,6222	-0,05200352	-5,200352
0,61515	-0,03746687	-3,746687
0,6081	-0,02400277	-2,400277
0,601	-0,01161338	-1,161338
0,59395	-0,00056048	-0,056048
0,58685	0,00941374	0,941374
0,5798	0,018299	1,8299
0,57275	0,02655009	2,655009
0,56565	0,03393202	3,393202
0,5586	0,04044622	4,044622
0,5515	0,04623409	4,623409
0,54445	0,05126987	5,126987
0,53735	0,05574389	5,574389
0,5303	0,05959311	5,959311
0,52325	0,06296561	6,296561
0,51615	0,06590786	6,590786
0,5091	0,06844317	6,844317
0,502	0,07064614	7,064614
0,49495	0,0725262	7,25262
0,4879	0,07415157	7,415157
0,4808	0,07554974	7,554974
0,47375	0,07673901	7,673901
0,46665	0,07775412	7,775412
0,4596	0,07860656	7,860656
0,4525	0,07933474	7,933474
0,44545	0,07994299	7,994299
0,4384	0,08045433	8,045433
0,4313	0,08088396	8,088396
0,42425	0,08123655	8,123655
0,41715	0,08153586	8,153586
0,4101	0,08177906	8,177906
0,40305	0,08198126	8,198126
0,39595	0,08214999	8,214999
0,3889	0,08228926	8,228926
0,3818	0,08240632	8,240632
0,37475	0,08250103	8,250103
0,3677	0,08257984	8,257984
0,3606	0,08264621	8,264621
0,35355	0,08270088	8,270088
0,34645	0,08274745	8,274745
0,3394	0,08278567	8,278567
0,3323	0,08281869	8,281869
0,32525	0,08284665	8,284665
0,3182	0,0828703	8,28703
0,3111	0,08289236	8,289236
0,30405	0,08291011	8,291011
0,29695	0,0829251	8,29251
0,2899	0,08293778	8,293778
0,28285	0,08294839	8,294839
0,27575	0,08295839	8,295839
0,2687	0,08296776	8,296776
0,2616	0,08297655	8,297655
0,25455	0,08298449	8,298449
0,24745	0,0829917	8,29917
0,2404	0,08299873	8,299873
0,23335	0,08300719	8,300719
0,22625	0,0830159	8,30159
0,2192	0,08302084	8,302084
0,2121	0,08302519	8,302519
0,20505	0,08303038	8,303038
0,198	0,08303555	8,303555
0,1909	0,08303952	8,303952
0,18385	0,08304345	8,304345
0,17675	0,08304834	8,304834
0,1697	0,0830536	8,30536
0,16265	0,08305961	8,305961
0,15555	0,08306429	8,306429
0,1485	0,0830683	8,30683
0,1414	0,08307209	8,307209
0,13435	0,08307531	8,307531
0,12725	0,08307891	8,307891
0,1202	0,08308329	8,308329
0,11315	0,08308738	8,308738
0,10605	0,08309146	8,309146
0,099	0,08309542	8,309542
0,0919	0,08309915	8,309915
0,08485	0,08310263	8,310263
0,0778	0,08310638	8,310638
0,0707	0,08310923	8,310923
0,06365	0,08311216	8,311216
0,05655	0,08311579	8,311579
0,0495	0,08311915	8,311915
0,0424	0,08312379	8,312379
0,03535	0,08312835	8,312835
0,0283	0,08313204	8,313204
0,0212	0,0831349	8,31349
0,01415	0,08313823	8,313823
0,00705	0,08314377	8,314377
0	0,0831473	8,31473

File: IBC_konst_500nmTiO2-60deg 2022-09-16 13-49-13.txt
Device Id	Operator	Recipe
IBC_konst_500nmTiO2-60deg	IS	ANA test,IV

Sample Area	Irradiance	Pre sweep delay	Bias Direction	Max Reverse Bias	Max Forward Bias	Num Sweep Points	Dwell Time	Current Limit	PVIV 10A I-AMP	Average	Dark Current	Rshunt V-Lo	Rshunt V-Hi
4,3681	1	0,5	0	0	0,7	100	50	200	0	0	0	-0,6	-0,1

Voc V	Isc A	Jsc mA/cm2	Imax A	Vmax V	Pmax mW	Fill Factor	Efficiency	R at Voc	R at Isc	Power W	RShunt ohms	Cell Temp start	Cell Temp end	Exposure	Time	Date
0,5846911	0,0604192	13,83191701	0,05578772	0,47241741	26,35509182	74,6042	6,0335	0,814655	2443,506	0,03255311	NaN	NaN	NaN	13,024	13:49:13	09/16/2022

Vmeas	Imeas
0,7	-0,2000139	-20,00139
0,69295	-0,2000084	-20,00084
0,68585	-0,2000073	-20,00073
0,6788	-0,2000139	-20,00139
0,6717	-0,1871772	-18,71772
0,66465	-0,1656482	-16,56482
0,6576	-0,1450714	-14,50714
0,6505	-0,1254915	-12,54915
0,64345	-0,1071469	-10,71469
0,63635	-0,0902548	-9,02548
0,6293	-0,07420969	-7,420969
0,6222	-0,05928968	-5,928968
0,61515	-0,04568924	-4,568924
0,6081	-0,03318347	-3,318347
0,601	-0,02176758	-2,176758
0,59395	-0,01150871	-1,150871
0,58685	-0,0023465	-0,23465
0,5798	0,00584361	0,584361
0,57275	0,01301114	1,301114
0,56565	0,01949404	1,949404
0,5586	0,02516656	2,516656
0,5515	0,03016615	3,016615
0,54445	0,03448351	3,448351
0,53735	0,03829227	3,829227
0,5303	0,04154539	4,154539
0,52325	0,04437418	4,437418
0,51615	0,04682532	4,682532
0,5091	0,0489226	4,89226
0,502	0,05073032	5,073032
0,49495	0,05226082	5,226082
0,4879	0,0535723	5,35723
0,4808	0,05468898	5,468898
0,47375	0,05562885	5,562885
0,46665	0,05642437	5,642437
0,4596	0,05708463	5,708463
0,4525	0,05764223	5,764223
0,44545	0,05810314	5,810314
0,4384	0,05848649	5,848649
0,4313	0,05880409	5,880409
0,42425	0,05906333	5,906333
0,41715	0,05927985	5,927985
0,4101	0,0594549	5,94549
0,40305	0,05959975	5,959975
0,39595	0,05971904	5,971904
0,3889	0,05981627	5,981627
0,3818	0,05989643	5,989643
0,37475	0,05996209	5,996209
0,3677	0,060016	6,0016
0,3606	0,06006094	6,006094
0,35355	0,06009845	6,009845
0,34645	0,06012982	6,012982
0,3394	0,06015611	6,015611
0,3323	0,06017859	6,017859
0,32525	0,06019776	6,019776
0,3182	0,06021439	6,021439
0,3111	0,06022866	6,022866
0,30405	0,06024064	6,024064
0,29695	0,06025171	6,025171
0,2899	0,06026124	6,026124
0,28285	0,06026961	6,026961
0,27575	0,06027722	6,027722
0,2687	0,06028426	6,028426
0,2616	0,06029077	6,029077
0,25455	0,06029684	6,029684
0,24745	0,0603027	6,03027
0,2404	0,06030824	6,030824
0,23335	0,06031306	6,031306
0,22625	0,06031763	6,031763
0,2192	0,06032219	6,032219
0,2121	0,06032625	6,032625
0,20505	0,06032962	6,032962
0,198	0,0603332	6,03332
0,1909	0,06033667	6,033667
0,18385	0,06034038	6,034038
0,17675	0,060344	6,0344
0,1697	0,06034773	6,034773
0,16265	0,06035208	6,035208
0,15555	0,06035531	6,035531
0,1485	0,06035822	6,035822
0,1414	0,06036133	6,036133
0,13435	0,06036411	6,036411
0,12725	0,06036691	6,036691
0,1202	0,06037017	6,037017
0,11315	0,0603731	6,03731
0,10605	0,06037638	6,037638
0,099	0,06037943	6,037943
0,0919	0,06038287	6,038287
0,08485	0,06038545	6,038545
0,0778	0,06038814	6,038814
0,0707	0,06039064	6,039064
0,06365	0,06039361	6,039361
0,05655	0,06039676	6,039676
0,0495	0,0603993	6,03993
0,0424	0,06040214	6,040214
0,03535	0,06040477	6,040477
0,0283	0,06040746	6,040746
0,0212	0,06041006	6,041006
0,01415	0,06041279	6,041279
0,00705	0,06041518	6,041518
0	0,06041788	6,041788

File: IBC_konst_500nmTiO2-70deg 2022-09-16 13-49-56.txt
Device Id	Operator	Recipe
IBC_konst_500nmTiO2-70deg	IS	ANA test,IV

Sample Area	Irradiance	Pre sweep delay	Bias Direction	Max Reverse Bias	Max Forward Bias	Num Sweep Points	Dwell Time	Current Limit	PVIV 10A I-AMP	Average	Dark Current	Rshunt V-Lo	Rshunt V-Hi
4,3681	1	0,5	0	0	0,7	100	50	200	0	0	0	-0,6	-0,1

Voc V	Isc A	Jsc mA/cm2	Imax A	Vmax V	Pmax mW	Fill Factor	Efficiency	R at Voc	R at Isc	Power W	RShunt ohms	Cell Temp start	Cell Temp end	Exposure	Time	Date
0,56876281	0,03726311	8,53073663	0,03451947	0,46312677	15,98689168	75,4317	3,6599	1,22632	4093,19	0,01960937	NaN	NaN	NaN	13,026	13:49:56	09/16/2022

Vmeas	Imeas
0,7	-0,2000082	-20,00082
0,69295	-0,2000111	-20,00111
0,68585	-0,2000145	-20,00145
0,6788	-0,2000145	-20,00145
0,6717	-0,1938049	-19,38049
0,66465	-0,1727372	-17,27372
0,6576	-0,1526977	-15,26977
0,6505	-0,1337046	-13,37046
0,64345	-0,1159945	-11,59945
0,63635	-0,0996993	-9,96993
0,6293	-0,08438227	-8,438227
0,6222	-0,07023175	-7,023175
0,61515	-0,05741503	-5,741503
0,6081	-0,04571351	-4,571351
0,601	-0,03510997	-3,510997
0,59395	-0,02565395	-2,565395
0,58685	-0,01719381	-1,719381
0,5798	-0,00983314	-0,983314
0,57275	-0,00325135	-0,325135
0,56565	0,00253833	0,253833
0,5586	0,00756596	0,756596
0,5515	0,01192523	1,192523
0,54445	0,01569331	1,569331
0,53735	0,01899506	1,899506
0,5303	0,02179689	2,179689
0,52325	0,02421627	2,421627
0,51615	0,02629901	2,629901
0,5091	0,02806746	2,806746
0,502	0,02958085	2,958085
0,49495	0,03085176	3,085176
0,4879	0,03193239	3,193239
0,4808	0,03284531	3,284531
0,47375	0,03360676	3,360676
0,46665	0,03424475	3,424475
0,4596	0,03476947	3,476947
0,4525	0,0352078	3,52078
0,44545	0,03556637	3,556637
0,4384	0,03586105	3,586105
0,4313	0,03610298	3,610298
0,42425	0,0362981	3,62981
0,41715	0,03645995	3,645995
0,4101	0,03658931	3,658931
0,40305	0,03669491	3,669491
0,39595	0,03678146	3,678146
0,3889	0,0368516	3,68516
0,3818	0,0369095	3,69095
0,37475	0,03695616	3,695616
0,3677	0,03699472	3,699472
0,3606	0,03702673	3,702673
0,35355	0,03705327	3,705327
0,34645	0,03707506	3,707506
0,3394	0,03709308	3,709308
0,3323	0,03710875	3,710875
0,32525	0,03712203	3,712203
0,3182	0,03713337	3,713337
0,3111	0,03714323	3,714323
0,30405	0,03715175	3,715175
0,29695	0,03715913	3,715913
0,2899	0,03716577	3,716577
0,28285	0,03717154	3,717154
0,27575	0,03717665	3,717665
0,2687	0,03718119	3,718119
0,2616	0,0371856	3,71856
0,25455	0,03718948	3,718948
0,24745	0,03719294	3,719294
0,2404	0,03719587	3,719587
0,23335	0,03719915	3,719915
0,22625	0,03720222	3,720222
0,2192	0,0372051	3,72051
0,2121	0,03720791	3,720791
0,20505	0,0372106	3,72106
0,198	0,03721302	3,721302
0,1909	0,03721539	3,721539
0,18385	0,03721755	3,721755
0,17675	0,03721881	3,721881
0,1697	0,03722069	3,722069
0,16265	0,03722271	3,722271
0,15555	0,03722459	3,722459
0,1485	0,03722655	3,722655
0,1414	0,037228	3,7228
0,13435	0,03722945	3,722945
0,12725	0,03723198	3,723198
0,1202	0,03723488	3,723488
0,11315	0,03723669	3,723669
0,10605	0,03723784	3,723784
0,099	0,03723946	3,723946
0,0919	0,03724128	3,724128
0,08485	0,03724257	3,724257
0,0778	0,03724425	3,724425
0,0707	0,03724608	3,724608
0,06365	0,03724784	3,724784
0,05655	0,03724993	3,724993
0,0495	0,03725195	3,725195
0,0424	0,03725317	3,725317
0,03535	0,03725442	3,725442
0,0283	0,03725641	3,725641
0,0212	0,03725757	3,725757
0,01415	0,03725883	3,725883
0,00705	0,03726024	3,726024
0	0,03726216	3,726216

File: IBC_konst_500nmTiO2-80deg 2022-09-16 13-50-51.txt
Device Id	Operator	Recipe
IBC_konst_500nmTiO2-80deg	IS	ANA test,IV

Sample Area	Irradiance	Pre sweep delay	Bias Direction	Max Reverse Bias	Max Forward Bias	Num Sweep Points	Dwell Time	Current Limit	PVIV 10A I-AMP	Average	Dark Current	Rshunt V-Lo	Rshunt V-Hi
4,3681	1	0,5	0	0	0,7	100	50	200	0	0	0	-0,6	-0,1

Voc V	Isc A	Jsc mA/cm2	Imax A	Vmax V	Pmax mW	Fill Factor	Efficiency	R at Voc	R at Isc	Power W	RShunt ohms	Cell Temp start	Cell Temp end	Exposure	Time	Date
0,53379253	0,01335875	3,05825292	0,01236528	0,43906675	5,42918414	76,1371	1,2429	3,027157	10385,483	0,00662187	NaN	NaN	NaN	13,025	13:50:51	09/16/2022

Vmeas	Imeas
0,7	-0,2000081	-20,00081
0,69295	-0,2000051	-20,00051
0,68585	-0,2000042	-20,00042
0,6788	-0,20001	-20,001
0,6717	-0,1987291	-19,87291
0,66465	-0,178311	-17,8311
0,6576	-0,1589778	-15,89778
0,6505	-0,1407637	-14,07637
0,64345	-0,1238823	-12,38823
0,63635	-0,1081792	-10,81792
0,6293	-0,0939359	-9,39359
0,6222	-0,08074179	-8,074179
0,61515	-0,06889027	-6,889027
0,6081	-0,05816427	-5,816427
0,601	-0,04853342	-4,853342
0,59395	-0,04002415	-4,002415
0,58685	-0,0324821	-3,24821
0,5798	-0,02593385	-2,593385
0,57275	-0,02018995	-2,018995
0,56565	-0,01517946	-1,517946
0,5586	-0,01086671	-1,086671
0,5515	-0,00712659	-0,712659
0,54445	-0,00394259	-0,394259
0,53735	-0,00117519	-0,117519
0,5303	0,00115373	0,115373
0,52325	0,00314984	0,314984
0,51615	0,00485375	0,485375
0,5091	0,00628944	0,628944
0,502	0,00750751	0,750751
0,49495	0,00852212	0,852212
0,4879	0,00937662	0,937662
0,4808	0,01009145	1,009145
0,47375	0,01068212	1,068212
0,46665	0,01117209	1,117209
0,4596	0,01157091	1,157091
0,4525	0,01190034	1,190034
0,44545	0,01216719	1,216719
0,4384	0,01238434	1,238434
0,4313	0,01256063	1,256063
0,42425	0,01270207	1,270207
0,41715	0,01281815	1,281815
0,4101	0,01291035	1,291035
0,40305	0,01298528	1,298528
0,39595	0,01304618	1,304618
0,3889	0,01309526	1,309526
0,3818	0,01313533	1,313533
0,37475	0,01316764	1,316764
0,3677	0,01319416	1,319416
0,3606	0,01321619	1,321619
0,35355	0,01323427	1,323427
0,34645	0,01324945	1,324945
0,3394	0,01326208	1,326208
0,3323	0,01327276	1,327276
0,32525	0,0132818	1,32818
0,3182	0,01328931	1,328931
0,3111	0,01329588	1,329588
0,30405	0,01330131	1,330131
0,29695	0,01330582	1,330582
0,2899	0,01331007	1,331007
0,28285	0,01331384	1,331384
0,27575	0,01331708	1,331708
0,2687	0,01331988	1,331988
0,2616	0,01332221	1,332221
0,25455	0,01332437	1,332437
0,24745	0,01332638	1,332638
0,2404	0,01332844	1,332844
0,23335	0,01333032	1,333032
0,22625	0,01333191	1,333191
0,2192	0,01333329	1,333329
0,2121	0,01333461	1,333461
0,20505	0,01333604	1,333604
0,198	0,01333718	1,333718
0,1909	0,01333819	1,333819
0,18385	0,01333934	1,333934
0,17675	0,01334048	1,334048
0,1697	0,01334168	1,334168
0,16265	0,0133426	1,33426
0,15555	0,01334343	1,334343
0,1485	0,01334437	1,334437
0,1414	0,0133451	1,33451
0,13435	0,01334572	1,334572
0,12725	0,01334639	1,334639
0,1202	0,01334702	1,334702
0,11315	0,01334774	1,334774
0,10605	0,01334879	1,334879
0,099	0,01334964	1,334964
0,0919	0,01335041	1,335041
0,08485	0,0133511	1,33511
0,0778	0,01335158	1,335158
0,0707	0,01335196	1,335196
0,06365	0,01335243	1,335243
0,05655	0,0133532	1,33532
0,0495	0,01335388	1,335388
0,0424	0,01335446	1,335446
0,03535	0,0133552	1,33552
0,0283	0,01335575	1,335575
0,0212	0,0133565	1,33565
0,01415	0,01335737	1,335737
0,00705	0,01335814	1,335814
0	0,01335893	1,335893

File: IBC_konst_500nmTiO2-90deg 2022-09-16 13-52-03.txt
Device Id	Operator	Recipe
IBC_konst_500nmTiO2-80deg	IS	ANA test,IV

Sample Area	Irradiance	Pre sweep delay	Bias Direction	Max Reverse Bias	Max Forward Bias	Num Sweep Points	Dwell Time	Current Limit	PVIV 10A I-AMP	Average	Dark Current	Rshunt V-Lo	Rshunt V-Hi
4,3681	1	0,5	0	0	0,7	100	50	200	0	0	0	-0,6	-0,1

Voc V	Isc A	Jsc mA/cm2	Imax A	Vmax V	Pmax mW	Fill Factor	Efficiency	R at Voc	R at Isc	Power W	RShunt ohms	Cell Temp start	Cell Temp end	Exposure	Time	Date
0,46561057	0,0018209	0,41686274	0,00165185	0,38150331	0,63018763	74,3295	0,1443	20,29469	41724,399	0,00078222	NaN	NaN	NaN	13,466	13:52:03	09/16/2022

Vmeas	Imeas
0,7	-0,2000039	-20,00039
0,69295	-0,2000022	-20,00022
0,68585	-0,2000021	-20,00021
0,6788	-0,2000026	-20,00026
0,6717	-0,199034	-19,9034
0,66465	-0,1790697	-17,90697
0,6576	-0,1602319	-16,02319
0,6505	-0,1425471	-14,25471
0,64345	-0,126216	-12,6216
0,63635	-0,1110906	-11,10906
0,6293	-0,0974012	-9,74012
0,6222	-0,08481992	-8,481992
0,61515	-0,07357694	-7,357694
0,6081	-0,06345921	-6,345921
0,601	-0,05442495	-5,442495
0,59395	-0,04648893	-4,648893
0,58685	-0,03949375	-3,949375
0,5798	-0,03345343	-3,345343
0,57275	-0,02818247	-2,818247
0,56565	-0,0236071	-2,36071
0,5586	-0,01968876	-1,968876
0,5515	-0,01630425	-1,630425
0,54445	-0,01343822	-1,343822
0,53735	-0,01095771	-1,095771
0,5303	-0,00887324	-0,887324
0,52325	-0,00709771	-0,709771
0,51615	-0,005588	-0,5588
0,5091	-0,00432054	-0,432054
0,502	-0,00324928	-0,324928
0,49495	-0,00236014	-0,236014
0,4879	-0,00161374	-0,161374
0,4808	-0,00099053	-0,099053
0,47375	-0,00047692	-0,047692
0,46665	-0,00005122	-0,005122
0,4596	0,00029616	0,029616
0,4525	0,00058109	0,058109
0,44545	0,00081216	0,081216
0,4384	0,00099973	0,099973
0,4313	0,00115315	0,115315
0,42425	0,00127568	0,127568
0,41715	0,00137622	0,137622
0,4101	0,00145611	0,145611
0,40305	0,00152096	0,152096
0,39595	0,00157362	0,157362
0,3889	0,00161605	0,161605
0,3818	0,00165065	0,165065
0,37475	0,00167846	0,167846
0,3677	0,00170125	0,170125
0,3606	0,00171999	0,171999
0,35355	0,00173533	0,173533
0,34645	0,00174799	0,174799
0,3394	0,00175833	0,175833
0,3323	0,00176699	0,176699
0,32525	0,00177425	0,177425
0,3182	0,00178031	0,178031
0,3111	0,00178547	0,178547
0,30405	0,00178976	0,178976
0,29695	0,00179342	0,179342
0,2899	0,00179655	0,179655
0,28285	0,00179923	0,179923
0,27575	0,00180155	0,180155
0,2687	0,00180356	0,180356
0,2616	0,00180536	0,180536
0,25455	0,00180687	0,180687
0,24745	0,0018082	0,18082
0,2404	0,00180937	0,180937
0,23335	0,0018104	0,18104
0,22625	0,00181129	0,181129
0,2192	0,00181208	0,181208
0,2121	0,0018128	0,18128
0,20505	0,00181345	0,181345
0,198	0,00181403	0,181403
0,1909	0,00181456	0,181456
0,18385	0,00181507	0,181507
0,17675	0,00181556	0,181556
0,1697	0,00181596	0,181596
0,16265	0,00181628	0,181628
0,15555	0,0018166	0,18166
0,1485	0,00181694	0,181694
0,1414	0,00181719	0,181719
0,13435	0,00181746	0,181746
0,12725	0,0018177	0,18177
0,1202	0,00181793	0,181793
0,11315	0,00181819	0,181819
0,10605	0,00181842	0,181842
0,099	0,00181863	0,181863
0,0919	0,0018188	0,18188
0,08485	0,00181898	0,181898
0,0778	0,00181913	0,181913
0,0707	0,0018193	0,18193
0,06365	0,00181944	0,181944
0,05655	0,00181959	0,181959
0,0495	0,00181975	0,181975
0,0424	0,00181992	0,181992
0,03535	0,00182005	0,182005
0,0283	0,0018202	0,18202
0,0212	0,00182036	0,182036
0,01415	0,00182051	0,182051
0,00705	0,00182061	0,182061
0	0,00182079	0,182079