Folder: Scientific_Analysis_MN/Python/Cell_Characterization/Polars (part 4)

File: IBC_konst_500nmTiO2_0deg 2022-09-16.txt
Device Id	Operator	Recipe
LT_IBC_thin_500nmTiO2	IvanSantos	ANA test,IV

Sample Area	Irradiance	Pre sweep delay	Bias Direction	Max Reverse Bias	Max Forward Bias	Num Sweep Points	Dwell Time	Current Limit	PVIV 10A I-AMP	Average	Dark Current	Rshunt V-Lo	Rshunt V-Hi
4,3681	1	0,5	0	0	0,7	100	50	200	0	0	0	-0,6	-0,1

Voc V	Isc A	Jsc mA/cm2	Imax A	Vmax V	Pmax mW	Fill Factor	Efficiency	R at Voc	R at Isc	Power W	RShunt ohms	Cell Temp start	Cell Temp end	Exposure	Time	Date
0,60997969	0,12819091	29,34706425	0,11707787	0,48197092	56,42813033	72,1644	12,9182	0,506527	1218,946	0,07113498	NaN	NaN	NaN	13,144	12:24:57	09/15/2022

Vmeas	Imeas
0,7	-0,1999392	-19,99392
0,69295	-0,1999372	-19,99372
0,68585	-0,1999347	-19,99347
0,6788	-0,1843393	-18,43393
0,6717	-0,1607985	-16,07985
0,66465	-0,1383786	-13,83786
0,6576	-0,1167867	-11,67867
0,6505	-0,0970728	-9,70728
0,64345	-0,0774015	-7,74015
0,63635	-0,05868616	-5,868616
0,6293	-0,04113313	-4,113313
0,6222	-0,02460088	-2,460088
0,61515	-0,00984531	-0,984531
0,6081	0,00451375	0,451375
0,601	0,01703832	1,703832
0,59395	0,02924394	2,924394
0,58685	0,04045335	4,045335
0,5798	0,05054094	5,054094
0,57275	0,05971629	5,971629
0,56565	0,0680129	6,80129
0,5586	0,07541239	7,541239
0,5515	0,08205675	8,205675
0,54445	0,08790363	8,790363
0,53735	0,09316042	9,316042
0,5303	0,09773382	9,773382
0,52325	0,1017841	10,17841
0,51615	0,1052349	10,52349
0,5091	0,1083576	10,83576
0,502	0,111107	11,1107
0,49495	0,1134759	11,34759
0,4879	0,115554	11,5554
0,4808	0,1173667	11,73667
0,47375	0,1189277	11,89277
0,46665	0,1202814	12,02814
0,4596	0,1214329	12,14329
0,4525	0,1224261	12,24261
0,44545	0,1232775	12,32775
0,4384	0,1240053	12,40053
0,4313	0,1246215	12,46215
0,42425	0,1251385	12,51385
0,41715	0,1255842	12,55842
0,4101	0,1259541	12,59541
0,40305	0,1262711	12,62711
0,39595	0,1265355	12,65355
0,3889	0,1267664	12,67664
0,3818	0,1269476	12,69476
0,37475	0,1271069	12,71069
0,3677	0,1272431	12,72431
0,3606	0,127357	12,7357
0,35355	0,127455	12,7455
0,34645	0,1275285	12,75285
0,3394	0,1275975	12,75975
0,3323	0,1276525	12,76525
0,32525	0,1277052	12,77052
0,3182	0,1277395	12,77395
0,3111	0,1277808	12,77808
0,30405	0,127812	12,7812
0,29695	0,1278376	12,78376
0,2899	0,1278606	12,78606
0,28285	0,1278822	12,78822
0,27575	0,1278964	12,78964
0,2687	0,1279145	12,79145
0,2616	0,1279296	12,79296
0,25455	0,1279427	12,79427
0,24745	0,127957	12,7957
0,2404	0,1279649	12,79649
0,23335	0,1279826	12,79826
0,22625	0,1279863	12,79863
0,2192	0,1279951	12,79951
0,2121	0,1280019	12,80019
0,20505	0,1280163	12,80163
0,198	0,1280242	12,80242
0,1909	0,1280275	12,80275
0,18385	0,1280376	12,80376
0,17675	0,128038	12,8038
0,1697	0,1280524	12,80524
0,16265	0,1280557	12,80557
0,15555	0,1280629	12,80629
0,1485	0,1280705	12,80705
0,1414	0,1280734	12,80734
0,13435	0,1280805	12,80805
0,12725	0,1280864	12,80864
0,1202	0,1280914	12,80914
0,11315	0,1281028	12,81028
0,10605	0,1281096	12,81096
0,099	0,1281112	12,81112
0,0919	0,1281171	12,81171
0,08485	0,128126	12,8126
0,0778	0,1281271	12,81271
0,0707	0,1281297	12,81297
0,06365	0,1281415	12,81415
0,05655	0,1281461	12,81461
0,0495	0,1281511	12,81511
0,0424	0,1281532	12,81532
0,03535	0,128165	12,8165
0,0283	0,1281667	12,81667
0,0212	0,1281709	12,81709
0,01415	0,1281781	12,81781
0,00705	0,1281831	12,81831
0	0,1281881	12,81881

File: IBC_konst_800nmTiO2-10deg 2022-09-16 14-02-08.txt
Device Id	Operator	Recipe
IBC_konst_800nmTiO2-10deg	IS	ANA test,IV

Sample Area	Irradiance	Pre sweep delay	Bias Direction	Max Reverse Bias	Max Forward Bias	Num Sweep Points	Dwell Time	Current Limit	PVIV 10A I-AMP	Average	Dark Current	Rshunt V-Lo	Rshunt V-Hi
4,3681	1	0,5	0	0	0,7	100	50	200	0	0	0	-0,6	-0,1

Voc V	Isc A	Jsc mA/cm2	Imax A	Vmax V	Pmax mW	Fill Factor	Efficiency	R at Voc	R at Isc	Power W	RShunt ohms	Cell Temp start	Cell Temp end	Exposure	Time	Date
0,61372	0,13644829	31,23744716	0,12163641	0,48422643	58,8995652	70,3354	13,484	0,495307	138,017	0,0751758	NaN	NaN	NaN	13,14	14:02:08	09/16/2022

Vmeas	Imeas
0,7	-0,1999809	-19,99809
0,69295	-0,1999791	-19,99791
0,68585	-0,1999799	-19,99799
0,6788	-0,199782	-19,9782
0,6717	-0,1715142	-17,15142
0,66465	-0,1450035	-14,50035
0,6576	-0,1198424	-11,98424
0,6505	-0,09732708	-9,732708
0,64345	-0,07515264	-7,515264
0,63635	-0,05442544	-5,442544
0,6293	-0,03533286	-3,533286
0,6222	-0,01766674	-1,766674
0,61515	-0,00218114	-0,218114
0,6081	0,01164666	1,164666
0,601	0,025221	2,5221
0,59395	0,03745093	3,745093
0,58685	0,04853032	4,853032
0,5798	0,05838383	5,838383
0,57275	0,0672596	6,72596
0,56565	0,07522471	7,522471
0,5586	0,08228993	8,228993
0,5515	0,08861446	8,861446
0,54445	0,09417251	9,417251
0,53735	0,09917124	9,917124
0,5303	0,1035251	10,35251
0,52325	0,1072483	10,72483
0,51615	0,1106818	11,06818
0,5091	0,1136868	11,36868
0,502	0,116351	11,6351
0,49495	0,1186555	11,86555
0,4879	0,1206979	12,06979
0,4808	0,1224703	12,24703
0,47375	0,1240309	12,40309
0,46665	0,1253896	12,53896
0,4596	0,1265609	12,65609
0,4525	0,1275842	12,75842
0,44545	0,1284667	12,84667
0,4384	0,1292216	12,92216
0,4313	0,1298826	12,98826
0,42425	0,1304476	13,04476
0,41715	0,1309361	13,09361
0,4101	0,1313556	13,13556
0,40305	0,1317193	13,17193
0,39595	0,1320296	13,20296
0,3889	0,1323117	13,23117
0,3818	0,1325429	13,25429
0,37475	0,1327569	13,27569
0,3677	0,1329376	13,29376
0,3606	0,1331011	13,31011
0,35355	0,1332517	13,32517
0,34645	0,1333892	13,33892
0,3394	0,1335081	13,35081
0,3323	0,1336187	13,36187
0,32525	0,1337234	13,37234
0,3182	0,1338184	13,38184
0,3111	0,1339104	13,39104
0,30405	0,1339878	13,39878
0,29695	0,1340634	13,40634
0,2899	0,1341408	13,41408
0,28285	0,1342173	13,42173
0,27575	0,1342892	13,42892
0,2687	0,1343624	13,43624
0,2616	0,1344355	13,44355
0,25455	0,1344961	13,44961
0,24745	0,1345629	13,45629
0,2404	0,1346222	13,46222
0,23335	0,1346861	13,46861
0,22625	0,1347458	13,47458
0,2192	0,1348033	13,48033
0,2121	0,1348681	13,48681
0,20505	0,1349235	13,49235
0,198	0,1349799	13,49799
0,1909	0,1350418	13,50418
0,18385	0,1350993	13,50993
0,17675	0,1351565	13,51565
0,1697	0,1352065	13,52065
0,16265	0,1352655	13,52655
0,15555	0,1353159	13,53159
0,1485	0,1353714	13,53714
0,1414	0,1354268	13,54268
0,13435	0,1354795	13,54795
0,12725	0,1355349	13,55349
0,1202	0,135584	13,5584
0,11315	0,1356374	13,56374
0,10605	0,1356926	13,56926
0,099	0,1357423	13,57423
0,0919	0,1357938	13,57938
0,08485	0,1358397	13,58397
0,0778	0,1358863	13,58863
0,0707	0,1359414	13,59414
0,06365	0,1359928	13,59928
0,05655	0,1360436	13,60436
0,0495	0,1360919	13,60919
0,0424	0,136144	13,6144
0,03535	0,1361932	13,61932
0,0283	0,1362369	13,62369
0,0212	0,1362865	13,62865
0,01415	0,1363344	13,63344
0,00705	0,1363879	13,63879
0	0,1364371	13,64371

File: IBC_konst_800nmTiO2-20deg 2022-09-16 14-03-02.txt
Device Id	Operator	Recipe
IBC_konst_800nmTiO2-10deg	IS	ANA test,IV

Sample Area	Irradiance	Pre sweep delay	Bias Direction	Max Reverse Bias	Max Forward Bias	Num Sweep Points	Dwell Time	Current Limit	PVIV 10A I-AMP	Average	Dark Current	Rshunt V-Lo	Rshunt V-Hi
4,3681	1	0,5	0	0	0,7	100	50	200	0	0	0	-0,6	-0,1

Voc V	Isc A	Jsc mA/cm2	Imax A	Vmax V	Pmax mW	Fill Factor	Efficiency	R at Voc	R at Isc	Power W	RShunt ohms	Cell Temp start	Cell Temp end	Exposure	Time	Date
0,61159842	0,13050618	29,87710458	0,11625623	0,48301124	56,15306523	70,3519	12,8553	0,493879	138,096	0,07165074	NaN	NaN	NaN	13,143	14:03:02	09/16/2022

Vmeas	Imeas
0,7	-0,1999638	-19,99638
0,69295	-0,1999667	-19,99667
0,68585	-0,1999697	-19,99697
0,6788	-0,199973	-19,9973
0,6717	-0,1754299	-17,54299
0,66465	-0,1489682	-14,89682
0,6576	-0,1238792	-12,38792
0,6505	-0,1002219	-10,02219
0,64345	-0,07925777	-7,925777
0,63635	-0,05862822	-5,862822
0,6293	-0,03963268	-3,963268
0,6222	-0,02206753	-2,206753
0,61515	-0,00668991	-0,668991
0,6081	0,00803748	0,803748
0,601	0,02060591	2,060591
0,59395	0,03273641	3,273641
0,58685	0,04372237	4,372237
0,5798	0,05348602	5,348602
0,57275	0,06227706	6,227706
0,56565	0,07016107	7,016107
0,5586	0,07715043	7,715043
0,5515	0,08340243	8,340243
0,54445	0,08888903	8,888903
0,53735	0,09381989	9,381989
0,5303	0,09811362	9,811362
0,52325	0,1019268	10,19268
0,51615	0,1051743	10,51743
0,5091	0,1081403	10,81403
0,502	0,1107573	11,07573
0,49495	0,1130305	11,30305
0,4879	0,1150324	11,50324
0,4808	0,1167923	11,67923
0,47375	0,1183208	11,83208
0,46665	0,1196489	11,96489
0,4596	0,1207924	12,07924
0,4525	0,1217972	12,17972
0,44545	0,1226561	12,26561
0,4384	0,1233989	12,33989
0,4313	0,1240405	12,40405
0,42425	0,1245879	12,45879
0,41715	0,1250663	12,50663
0,4101	0,1254774	12,54774
0,40305	0,1258272	12,58272
0,39595	0,1261337	12,61337
0,3889	0,1263959	12,63959
0,3818	0,1266314	12,66314
0,37475	0,1268337	12,68337
0,3677	0,1270166	12,70166
0,3606	0,1271738	12,71738
0,35355	0,1273226	12,73226
0,34645	0,1274478	12,74478
0,3394	0,127569	12,7569
0,3323	0,1276744	12,76744
0,32525	0,1277779	12,77779
0,3182	0,1278683	12,78683
0,3111	0,1279595	12,79595
0,30405	0,128042	12,8042
0,29695	0,1281235	12,81235
0,2899	0,128197	12,8197
0,28285	0,1282761	12,82761
0,27575	0,1283484	12,83484
0,2687	0,1284161	12,84161
0,2616	0,1284859	12,84859
0,25455	0,1285472	12,85472
0,24745	0,1286112	12,86112
0,2404	0,1286788	12,86788
0,23335	0,1287389	12,87389
0,22625	0,1288046	12,88046
0,2192	0,12886	12,886
0,2121	0,1289239	12,89239
0,20505	0,128984	12,8984
0,198	0,1290391	12,90391
0,1909	0,1290992	12,90992
0,18385	0,1291509	12,91509
0,17675	0,1292094	12,92094
0,1697	0,1292674	12,92674
0,16265	0,1293229	12,93229
0,15555	0,1293787	12,93787
0,1485	0,1294292	12,94292
0,1414	0,129486	12,9486
0,13435	0,1295369	12,95369
0,12725	0,1295852	12,95852
0,1202	0,129639	12,9639
0,11315	0,1296916	12,96916
0,10605	0,1297463	12,97463
0,099	0,1297919	12,97919
0,0919	0,1298424	12,98424
0,08485	0,1299006	12,99006
0,0778	0,1299522	12,99522
0,0707	0,1300039	13,00039
0,06365	0,1300565	13,00565
0,05655	0,1301044	13,01044
0,0495	0,1301514	13,01514
0,0424	0,1301922	13,01922
0,03535	0,1302478	13,02478
0,0283	0,1302978	13,02978
0,0212	0,1303457	13,03457
0,01415	0,1303957	13,03957
0,00705	0,1304471	13,04471
0	0,1304983	13,04983

File: IBC_konst_800nmTiO2-30deg 2022-09-16 14-04-06.txt
Device Id	Operator	Recipe
IBC_konst_800nmTiO2-30deg	IS	ANA test,IV

Sample Area	Irradiance	Pre sweep delay	Bias Direction	Max Reverse Bias	Max Forward Bias	Num Sweep Points	Dwell Time	Current Limit	PVIV 10A I-AMP	Average	Dark Current	Rshunt V-Lo	Rshunt V-Hi
4,3681	1	0,5	0	0	0,7	100	50	200	0	0	0	-0,6	-0,1

Voc V	Isc A	Jsc mA/cm2	Imax A	Vmax V	Pmax mW	Fill Factor	Efficiency	R at Voc	R at Isc	Power W	RShunt ohms	Cell Temp start	Cell Temp end	Exposure	Time	Date
0,6094137	0,12023019	27,52459617	0,10696604	0,48267521	51,62985481	70,4653	11,8198	0,540214	137,259	0,06575994	NaN	NaN	NaN	13,133	14:04:06	09/16/2022

Vmeas	Imeas
0,7	-0,1999727	-19,99727
0,69295	-0,1999691	-19,99691
0,68585	-0,1999691	-19,99691
0,6788	-0,1999728	-19,99728
0,6717	-0,1772979	-17,72979
0,66465	-0,1511485	-15,11485
0,6576	-0,1264061	-12,64061
0,6505	-0,1030972	-10,30972
0,64345	-0,08241654	-8,241654
0,63635	-0,06217872	-6,217872
0,6293	-0,04358189	-4,358189
0,6222	-0,02642231	-2,642231
0,61515	-0,01087242	-1,087242
0,6081	0,00297093	0,297093
0,601	0,01528946	1,528946
0,59395	0,02703754	2,703754
0,58685	0,03764994	3,764994
0,5798	0,047061	4,7061
0,57275	0,05551393	5,551393
0,56565	0,06307733	6,307733
0,5586	0,06976733	6,976733
0,5515	0,07573787	7,573787
0,54445	0,0809688	8,09688
0,53735	0,08566032	8,566032
0,5303	0,089737	8,9737
0,52325	0,0933502	9,33502
0,51615	0,0965439	9,65439
0,5091	0,09933436	9,933436
0,502	0,1017949	10,17949
0,49495	0,103928	10,3928
0,4879	0,1057086	10,57086
0,4808	0,1073519	10,73519
0,47375	0,108775	10,8775
0,46665	0,1100135	11,00135
0,4596	0,1110746	11,10746
0,4525	0,1120033	11,20033
0,44545	0,112797	11,2797
0,4384	0,1134819	11,34819
0,4313	0,11407	11,407
0,42425	0,1145728	11,45728
0,41715	0,1150138	11,50138
0,4101	0,1153838	11,53838
0,40305	0,115705	11,5705
0,39595	0,1159879	11,59879
0,3889	0,1162266	11,62266
0,3818	0,1164411	11,64411
0,37475	0,1166265	11,66265
0,3677	0,1167955	11,67955
0,3606	0,1169426	11,69426
0,35355	0,1170726	11,70726
0,34645	0,1171957	11,71957
0,3394	0,1173063	11,73063
0,3323	0,1174122	11,74122
0,32525	0,117508	11,7508
0,3182	0,1175951	11,75951
0,3111	0,1176808	11,76808
0,30405	0,117765	11,7765
0,29695	0,1178415	11,78415
0,2899	0,1179128	11,79128
0,28285	0,1179928	11,79928
0,27575	0,1180576	11,80576
0,2687	0,118129	11,8129
0,2616	0,1181985	11,81985
0,25455	0,1182631	11,82631
0,24745	0,1183279	11,83279
0,2404	0,1183935	11,83935
0,23335	0,1184535	11,84535
0,22625	0,1185158	11,85158
0,2192	0,118578	11,8578
0,2121	0,118636	11,8636
0,20505	0,1186978	11,86978
0,198	0,1187529	11,87529
0,1909	0,1188118	11,88118
0,18385	0,1188664	11,88664
0,17675	0,1189231	11,89231
0,1697	0,1189867	11,89867
0,16265	0,1190375	11,90375
0,15555	0,119093	11,9093
0,1485	0,1191451	11,91451
0,1414	0,119204	11,9204
0,13435	0,1192561	11,92561
0,12725	0,1193079	11,93079
0,1202	0,1193578	11,93578
0,11315	0,1194126	11,94126
0,10605	0,1194633	11,94633
0,099	0,1195184	11,95184
0,0919	0,1195701	11,95701
0,08485	0,1196214	11,96214
0,0778	0,1196736	11,96736
0,0707	0,1197202	11,97202
0,06365	0,1197693	11,97693
0,05655	0,1198168	11,98168
0,0495	0,1198665	11,98665
0,0424	0,1199216	11,99216
0,03535	0,1199713	11,99713
0,0283	0,1200178	12,00178
0,0212	0,1200755	12,00755
0,01415	0,120123	12,0123
0,00705	0,120173	12,0173
0	0,1202176	12,02176

File: IBC_konst_800nmTiO2-40deg 2022-09-16 14-04-42.txt
Device Id	Operator	Recipe
IBC_konst_800nmTiO2-40deg	IS	ANA test,IV

Sample Area	Irradiance	Pre sweep delay	Bias Direction	Max Reverse Bias	Max Forward Bias	Num Sweep Points	Dwell Time	Current Limit	PVIV 10A I-AMP	Average	Dark Current	Rshunt V-Lo	Rshunt V-Hi
4,3681	1	0,5	0	0	0,7	100	50	200	0	0	0	-0,6	-0,1

Voc V	Isc A	Jsc mA/cm2	Imax A	Vmax V	Pmax mW	Fill Factor	Efficiency	R at Voc	R at Isc	Power W	RShunt ohms	Cell Temp start	Cell Temp end	Exposure	Time	Date
0,60223681	0,10458696	23,94335205	0,09301875	0,4780221	44,46501863	70,595	10,1795	0,588479	142,388	0,05653883	NaN	NaN	NaN	13,025	14:04:42	09/16/2022

Vmeas	Imeas
0,7	-0,1999692	-19,99692
0,69295	-0,199968	-19,9968
0,68585	-0,199965	-19,9965
0,6788	-0,1999683	-19,99683
0,6717	-0,190545	-19,0545
0,66465	-0,1643212	-16,43212
0,6576	-0,1395116	-13,95116
0,6505	-0,1161791	-11,61791
0,64345	-0,09536152	-9,536152
0,63635	-0,07512848	-7,512848
0,6293	-0,05656533	-5,656533
0,6222	-0,03946317	-3,946317
0,61515	-0,02399167	-2,399167
0,6081	-0,01023586	-1,023586
0,601	0,00269252	0,269252
0,59395	0,01376347	1,376347
0,58685	0,02424153	2,424153
0,5798	0,03352017	3,352017
0,57275	0,04183907	4,183907
0,56565	0,04927133	4,927133
0,5586	0,05583376	5,583376
0,5515	0,06168196	6,168196
0,54445	0,06679702	6,679702
0,53735	0,07137278	7,137278
0,5303	0,07534619	7,534619
0,52325	0,07885693	7,885693
0,51615	0,08195552	8,195552
0,5091	0,08465843	8,465843
0,502	0,0870344	8,70344
0,49495	0,08908949	8,908949
0,4879	0,09088994	9,088994
0,4808	0,09246171	9,246171
0,47375	0,09381784	9,381784
0,46665	0,09499586	9,499586
0,4596	0,09600148	9,600148
0,4525	0,0968757	9,68757
0,44545	0,0976223	9,76223
0,4384	0,09826146	9,826146
0,4313	0,09881192	9,881192
0,42425	0,09927803	9,927803
0,41715	0,09968368	9,968368
0,4101	0,100026	10,0026
0,40305	0,100323	10,0323
0,39595	0,1005809	10,05809
0,3889	0,1008032	10,08032
0,3818	0,1009988	10,09988
0,37475	0,1011696	10,11696
0,3677	0,1013217	10,13217
0,3606	0,1014587	10,14587
0,35355	0,101582	10,1582
0,34645	0,1016943	10,16943
0,3394	0,1017969	10,17969
0,3323	0,1018929	10,18929
0,32525	0,1019827	10,19827
0,3182	0,1020674	10,20674
0,3111	0,1021475	10,21475
0,30405	0,1022239	10,22239
0,29695	0,1022982	10,22982
0,2899	0,1023689	10,23689
0,28285	0,1024373	10,24373
0,27575	0,1025051	10,25051
0,2687	0,1025699	10,25699
0,2616	0,1026349	10,26349
0,25455	0,1026969	10,26969
0,24745	0,1027584	10,27584
0,2404	0,1028191	10,28191
0,23335	0,1028792	10,28792
0,22625	0,1029382	10,29382
0,2192	0,1029954	10,29954
0,2121	0,1030527	10,30527
0,20505	0,1031089	10,31089
0,198	0,1031652	10,31652
0,1909	0,1032209	10,32209
0,18385	0,1032756	10,32756
0,17675	0,10333	10,333
0,1697	0,1033837	10,33837
0,16265	0,1034369	10,34369
0,15555	0,1034906	10,34906
0,1485	0,1035427	10,35427
0,1414	0,1035955	10,35955
0,13435	0,1036467	10,36467
0,12725	0,1036982	10,36982
0,1202	0,1037492	10,37492
0,11315	0,1037997	10,37997
0,10605	0,10385	10,385
0,099	0,1038996	10,38996
0,0919	0,103949	10,3949
0,08485	0,1039982	10,39982
0,0778	0,1040466	10,40466
0,0707	0,104096	10,4096
0,06365	0,1041444	10,41444
0,05655	0,1041924	10,41924
0,0495	0,1042407	10,42407
0,0424	0,1042892	10,42892
0,03535	0,1043366	10,43366
0,0283	0,1043851	10,43851
0,0212	0,1044336	10,44336
0,01415	0,1044811	10,44811
0,00705	0,1045291	10,45291
0	0,1045774	10,45774

File: IBC_konst_800nmTiO2-50deg 2022-09-16 14-05-33.txt
Device Id	Operator	Recipe
IBC_konst_800nmTiO2-50deg	IS	ANA test,IV

Sample Area	Irradiance	Pre sweep delay	Bias Direction	Max Reverse Bias	Max Forward Bias	Num Sweep Points	Dwell Time	Current Limit	PVIV 10A I-AMP	Average	Dark Current	Rshunt V-Lo	Rshunt V-Hi
4,3681	1	0,5	0	0	0,7	100	50	200	0	0	0	-0,6	-0,1

Voc V	Isc A	Jsc mA/cm2	Imax A	Vmax V	Pmax mW	Fill Factor	Efficiency	R at Voc	R at Isc	Power W	RShunt ohms	Cell Temp start	Cell Temp end	Exposure	Time	Date
0,59545735	0,08472987	19,39741984	0,0750538	0,47492231	35,64472335	70,6493	8,1602	0,698931	143,582	0,04523012	NaN	NaN	NaN	13,019	14:05:33	09/16/2022

Vmeas	Imeas
0,7	-0,199965	-19,9965
0,69295	-0,1999653	-19,99653
0,68585	-0,199965	-19,9965
0,6788	-0,1999687	-19,99687
0,6717	-0,1936221	-19,36221
0,66465	-0,1680705	-16,80705
0,6576	-0,1440088	-14,40088
0,6505	-0,121458	-12,1458
0,64345	-0,1006327	-10,06327
0,63635	-0,08191818	-8,191818
0,6293	-0,06420264	-6,420264
0,6222	-0,04794499	-4,794499
0,61515	-0,03330082	-3,330082
0,6081	-0,01997686	-1,997686
0,601	-0,00816378	-0,816378
0,59395	0,00265965	0,265965
0,58685	0,01204564	1,204564
0,5798	0,02063278	2,063278
0,57275	0,02830385	2,830385
0,56565	0,03513227	3,513227
0,5586	0,04113751	4,113751
0,5515	0,04647014	4,647014
0,54445	0,05111644	5,111644
0,53735	0,05526098	5,526098
0,5303	0,05884381	5,884381
0,52325	0,06200201	6,200201
0,51615	0,06477775	6,477775
0,5091	0,06718795	6,718795
0,502	0,06929708	6,929708
0,49495	0,07111137	7,111137
0,4879	0,07269271	7,269271
0,4808	0,07406387	7,406387
0,47375	0,07523764	7,523764
0,46665	0,07625402	7,625402
0,4596	0,07711534	7,711534
0,4525	0,07785938	7,785938
0,44545	0,07849099	7,849099
0,4384	0,07902828	7,902828
0,4313	0,07948899	7,948899
0,42425	0,07987736	7,987736
0,41715	0,08021477	8,021477
0,4101	0,08049864	8,049864
0,40305	0,08074484	8,074484
0,39595	0,08095957	8,095957
0,3889	0,08114535	8,114535
0,3818	0,08131047	8,131047
0,37475	0,08145554	8,145554
0,3677	0,08158661	8,158661
0,3606	0,08170625	8,170625
0,35355	0,08181575	8,181575
0,34645	0,08191571	8,191571
0,3394	0,08200855	8,200855
0,3323	0,0820967	8,20967
0,32525	0,08217812	8,217812
0,3182	0,0822567	8,22567
0,3111	0,08233215	8,233215
0,30405	0,0824045	8,24045
0,29695	0,08247501	8,247501
0,2899	0,08254372	8,254372
0,28285	0,08260974	8,260974
0,27575	0,08267529	8,267529
0,2687	0,08273869	8,273869
0,2616	0,08280148	8,280148
0,25455	0,08286198	8,286198
0,24745	0,08292214	8,292214
0,2404	0,08298104	8,298104
0,23335	0,08303959	8,303959
0,22625	0,08309792	8,309792
0,2192	0,08315478	8,315478
0,2121	0,08321116	8,321116
0,20505	0,08326662	8,326662
0,198	0,08332197	8,332197
0,1909	0,08337676	8,337676
0,18385	0,08343087	8,343087
0,17675	0,08348479	8,348479
0,1697	0,08353812	8,353812
0,16265	0,08359038	8,359038
0,15555	0,08364291	8,364291
0,1485	0,08369441	8,369441
0,1414	0,08374613	8,374613
0,13435	0,08379651	8,379651
0,12725	0,08384716	8,384716
0,1202	0,08389809	8,389809
0,11315	0,08394798	8,394798
0,10605	0,08399785	8,399785
0,099	0,08404799	8,404799
0,0919	0,08409714	8,409714
0,08485	0,08414608	8,414608
0,0778	0,08419428	8,419428
0,0707	0,08424284	8,424284
0,06365	0,08429047	8,429047
0,05655	0,0843387	8,43387
0,0495	0,08438674	8,438674
0,0424	0,08443476	8,443476
0,03535	0,08448275	8,448275
0,0283	0,0845299	8,45299
0,0212	0,08457773	8,457773
0,01415	0,08462495	8,462495
0,00705	0,08467241	8,467241
0	0,08472112	8,472112

File: IBC_konst_800nmTiO2-60deg 2022-09-16 14-06-11.txt
Device Id	Operator	Recipe
IBC_konst_800nmTiO2-60deg	IS	ANA test,IV

Sample Area	Irradiance	Pre sweep delay	Bias Direction	Max Reverse Bias	Max Forward Bias	Num Sweep Points	Dwell Time	Current Limit	PVIV 10A I-AMP	Average	Dark Current	Rshunt V-Lo	Rshunt V-Hi
4,3681	1	0,5	0	0	0,7	100	50	200	0	0	0	-0,6	-0,1

Voc V	Isc A	Jsc mA/cm2	Imax A	Vmax V	Pmax mW	Fill Factor	Efficiency	R at Voc	R at Isc	Power W	RShunt ohms	Cell Temp start	Cell Temp end	Exposure	Time	Date
0,58293712	0,06224017	14,24879771	0,05458407	0,46724687	25,50423499	70,2942	5,8387	0,933534	146,709	0,03237615	NaN	NaN	NaN	13,026	14:06:11	09/16/2022

Vmeas	Imeas
0,7	-0,1999643	-19,99643
0,69295	-0,1999606	-19,99606
0,68585	-0,1999632	-19,99632
0,6788	-0,1999648	-19,99648
0,6717	-0,1999693	-19,99693
0,66465	-0,1789311	-17,89311
0,6576	-0,155344	-15,5344
0,6505	-0,1333022	-13,33022
0,64345	-0,1130055	-11,30055
0,63635	-0,09473243	-9,473243
0,6293	-0,07759268	-7,759268
0,6222	-0,06192457	-6,192457
0,61515	-0,04786095	-4,786095
0,6081	-0,03510946	-3,510946
0,601	-0,0236131	-2,36131
0,59395	-0,01339028	-1,339028
0,58685	-0,00435334	-0,435334
0,5798	0,00370827	0,370827
0,57275	0,01072649	1,072649
0,56565	0,01709396	1,709396
0,5586	0,02267489	2,267489
0,5515	0,02761458	2,761458
0,54445	0,03190458	3,190458
0,53735	0,03571754	3,571754
0,5303	0,03900195	3,900195
0,52325	0,04188358	4,188358
0,51615	0,04440522	4,440522
0,5091	0,04658426	4,658426
0,502	0,04848327	4,848327
0,49495	0,05010934	5,010934
0,4879	0,05151825	5,151825
0,4808	0,05273236	5,273236
0,47375	0,05376676	5,376676
0,46665	0,05465456	5,465456
0,4596	0,05540254	5,540254
0,4525	0,05604582	5,604582
0,44545	0,05658766	5,658766
0,4384	0,05704746	5,704746
0,4313	0,05743894	5,743894
0,42425	0,05776832	5,776832
0,41715	0,05805304	5,805304
0,4101	0,0582927	5,82927
0,40305	0,05850074	5,850074
0,39595	0,05868353	5,868353
0,3889	0,05884359	5,884359
0,3818	0,05898648	5,898648
0,37475	0,05911263	5,911263
0,3677	0,05922717	5,922717
0,3606	0,05933233	5,933233
0,35355	0,0594288	5,94288
0,34645	0,05951987	5,951987
0,3394	0,05960428	5,960428
0,3323	0,05968491	5,968491
0,32525	0,0597613	5,97613
0,3182	0,05983498	5,983498
0,3111	0,05990657	5,990657
0,30405	0,05997502	5,997502
0,29695	0,06004173	6,004173
0,2899	0,06010716	6,010716
0,28285	0,06017025	6,017025
0,27575	0,06023303	6,023303
0,2687	0,06029351	6,029351
0,2616	0,06035408	6,035408
0,25455	0,06041273	6,041273
0,24745	0,06047103	6,047103
0,2404	0,06052852	6,052852
0,23335	0,06058543	6,058543
0,22625	0,06064187	6,064187
0,2192	0,06069766	6,069766
0,2121	0,0607531	6,07531
0,20505	0,06080741	6,080741
0,198	0,06086115	6,086115
0,1909	0,06091403	6,091403
0,18385	0,06096665	6,096665
0,17675	0,0610193	6,10193
0,1697	0,06107141	6,107141
0,16265	0,061123	6,1123
0,15555	0,06117515	6,117515
0,1485	0,06122444	6,122444
0,1414	0,06127606	6,127606
0,13435	0,06132546	6,132546
0,12725	0,06137493	6,137493
0,1202	0,06142518	6,142518
0,11315	0,06147392	6,147392
0,10605	0,0615229	6,15229
0,099	0,06157069	6,157069
0,0919	0,0616191	6,16191
0,08485	0,06166719	6,166719
0,0778	0,06171549	6,171549
0,0707	0,06176383	6,176383
0,06365	0,06181079	6,181079
0,05655	0,06185808	6,185808
0,0495	0,06190542	6,190542
0,0424	0,06195233	6,195233
0,03535	0,06199853	6,199853
0,0283	0,06204474	6,204474
0,0212	0,06209183	6,209183
0,01415	0,06213814	6,213814
0,00705	0,0621847	6,21847
0	0,06223247	6,223247