Folder: Scientific_Analysis_MN/Python/Cell_Characterization/Polars (part 2)

File: IBC_konst_400nmTiO2-50deg 2022-09-16 13-31-28.txt
Device Id	Operator	Recipe
IBC_konst_400nmTiO2-50deg	IS	ANA test,IV

Sample Area	Irradiance	Pre sweep delay	Bias Direction	Max Reverse Bias	Max Forward Bias	Num Sweep Points	Dwell Time	Current Limit	PVIV 10A I-AMP	Average	Dark Current	Rshunt V-Lo	Rshunt V-Hi
4,3681	1	0,5	0	0	0,7	100	50	200	0	0	0	-0,6	-0,1

Voc V	Isc A	Jsc mA/cm2	Imax A	Vmax V	Pmax mW	Fill Factor	Efficiency	R at Voc	R at Isc	Power W	RShunt ohms	Cell Temp start	Cell Temp end	Exposure	Time	Date
0,58402859	0,06945227	15,89988041	0,05715585	0,45874124	26,21974659	64,641	6,0026	0,994033	63,317	0,0346413	NaN	NaN	NaN	13,018	13:31:28	09/16/2022

Vmeas	Imeas
0,7	-0,1996599	-19,96599
0,69295	-0,1996561	-19,96561
0,68585	-0,1870028	-18,70028
0,6788	-0,1683948	-16,83948
0,6717	-0,1505026	-15,05026
0,66465	-0,1334931	-13,34931
0,6576	-0,1173986	-11,73986
0,6505	-0,1019863	-10,19863
0,64345	-0,08803801	-8,803801
0,63635	-0,07432578	-7,432578
0,6293	-0,06154926	-6,154926
0,6222	-0,04958619	-4,958619
0,61515	-0,0385838	-3,85838
0,6081	-0,02836343	-2,836343
0,601	-0,01891485	-1,891485
0,59395	-0,01029859	-1,029859
0,58685	-0,0025138	-0,25138
0,5798	0,00462959	0,462959
0,57275	0,01096373	1,096373
0,56565	0,01688536	1,688536
0,5586	0,02219434	2,219434
0,5515	0,02699651	2,699651
0,54445	0,03125709	3,125709
0,53735	0,03512013	3,512013
0,5303	0,03851747	3,851747
0,52325	0,04155639	4,155639
0,51615	0,04426821	4,426821
0,5091	0,0466569	4,66569
0,502	0,04877951	4,877951
0,49495	0,05063408	5,063408
0,4879	0,05227562	5,227562
0,4808	0,05372259	5,372259
0,47375	0,05498388	5,498388
0,46665	0,05609103	5,609103
0,4596	0,05704652	5,704652
0,4525	0,05788796	5,788796
0,44545	0,0586127	5,86127
0,4384	0,05924398	5,924398
0,4313	0,05979553	5,979553
0,42425	0,06027106	6,027106
0,41715	0,06069206	6,069206
0,4101	0,06106024	6,106024
0,40305	0,06138611	6,138611
0,39595	0,06167952	6,167952
0,3889	0,0619423	6,19423
0,3818	0,06218405	6,218405
0,37475	0,06240594	6,240594
0,3677	0,06261169	6,261169
0,3606	0,06280643	6,280643
0,35355	0,06298928	6,298928
0,34645	0,06316599	6,316599
0,3394	0,06333552	6,333552
0,3323	0,0635009	6,35009
0,32525	0,06366038	6,366038
0,3182	0,06381573	6,381573
0,3111	0,06396973	6,396973
0,30405	0,06412087	6,412087
0,29695	0,06427038	6,427038
0,2899	0,06441705	6,441705
0,28285	0,06456112	6,456112
0,27575	0,06470536	6,470536
0,2687	0,06484785	6,484785
0,2616	0,06498988	6,498988
0,25455	0,06512997	6,512997
0,24745	0,06526958	6,526958
0,2404	0,06540658	6,540658
0,23335	0,06554282	6,554282
0,22625	0,06567839	6,567839
0,2192	0,06581211	6,581211
0,2121	0,06594563	6,594563
0,20505	0,06607655	6,607655
0,198	0,06620727	6,620727
0,1909	0,06633696	6,633696
0,18385	0,06646557	6,646557
0,17675	0,06659371	6,659371
0,1697	0,06671941	6,671941
0,16265	0,06684375	6,684375
0,15555	0,06696737	6,696737
0,1485	0,0670897	6,70897
0,1414	0,06721184	6,721184
0,13435	0,06733132	6,733132
0,12725	0,06745105	6,745105
0,1202	0,06756823	6,756823
0,11315	0,06768563	6,768563
0,10605	0,0678014	6,78014
0,099	0,06791555	6,791555
0,0919	0,06802986	6,802986
0,08485	0,06814317	6,814317
0,0778	0,06825403	6,825403
0,0707	0,06836428	6,836428
0,06365	0,06847316	6,847316
0,05655	0,06858146	6,858146
0,0495	0,06868816	6,868816
0,0424	0,068794	6,8794
0,03535	0,06889786	6,889786
0,0283	0,06899994	6,899994
0,0212	0,06910142	6,910142
0,01415	0,06919996	6,919996
0,00705	0,0692978	6,92978
0	0,06939498	6,939498

File: IBC_konst_400nmTiO2-60deg 2022-09-16 13-32-09.txt
Device Id	Operator	Recipe
IBC_konst_400nmTiO2-60deg	IS	ANA test,IV

Sample Area	Irradiance	Pre sweep delay	Bias Direction	Max Reverse Bias	Max Forward Bias	Num Sweep Points	Dwell Time	Current Limit	PVIV 10A I-AMP	Average	Dark Current	Rshunt V-Lo	Rshunt V-Hi
4,3681	1	0,5	0	0	0,7	100	50	200	0	0	0	-0,6	-0,1

Voc V	Isc A	Jsc mA/cm2	Imax A	Vmax V	Pmax mW	Fill Factor	Efficiency	R at Voc	R at Isc	Power W	RShunt ohms	Cell Temp start	Cell Temp end	Exposure	Time	Date
0,57272256	0,05118418	11,71772112	0,04195832	0,45296995	19,00585859	64,8347	4,3511	1,246634	111,602	0,02516336	NaN	NaN	NaN	13,36	13:32:09	09/16/2022

Vmeas	Imeas
0,7	-0,1996586	-19,96586
0,69295	-0,1996595	-19,96595
0,68585	-0,1911571	-19,11571
0,6788	-0,1728065	-17,28065
0,6717	-0,1552005	-15,52005
0,66465	-0,1385241	-13,85241
0,6576	-0,1227777	-12,27777
0,6505	-0,1077472	-10,77472
0,64345	-0,09412202	-9,412202
0,63635	-0,08085209	-8,085209
0,6293	-0,06853528	-6,853528
0,6222	-0,05705465	-5,705465
0,61515	-0,04654487	-4,654487
0,6081	-0,03682112	-3,682112
0,601	-0,02787699	-2,787699
0,59395	-0,01975812	-1,975812
0,58685	-0,01234785	-1,234785
0,5798	-0,00578209	-0,578209
0,57275	0,00019994	0,019994
0,56565	0,00555623	0,555623
0,5586	0,01042171	1,042171
0,5515	0,01472525	1,472525
0,54445	0,0185912	1,85912
0,53735	0,02207705	2,207705
0,5303	0,0251236	2,51236
0,52325	0,02783512	2,783512
0,51615	0,03023985	3,023985
0,5091	0,03234702	3,234702
0,502	0,03420747	3,420747
0,49495	0,03582285	3,582285
0,4879	0,03724175	3,724175
0,4808	0,03848406	3,848406
0,47375	0,03955887	3,955887
0,46665	0,04049571	4,049571
0,4596	0,04129926	4,129926
0,4525	0,0420007	4,20007
0,44545	0,0426039	4,26039
0,4384	0,04312558	4,312558
0,4313	0,04358064	4,358064
0,42425	0,04397304	4,397304
0,41715	0,0443214	4,43214
0,4101	0,04462694	4,462694
0,40305	0,04489957	4,489957
0,39595	0,04514659	4,514659
0,3889	0,0453694	4,53694
0,3818	0,04557624	4,557624
0,37475	0,04576785	4,576785
0,3677	0,04594819	4,594819
0,3606	0,04612007	4,612007
0,35355	0,04628208	4,628208
0,34645	0,04643965	4,643965
0,3394	0,04659059	4,659059
0,3323	0,04673825	4,673825
0,32525	0,04688128	4,688128
0,3182	0,04702052	4,702052
0,3111	0,04715844	4,715844
0,30405	0,04729269	4,729269
0,29695	0,04742558	4,742558
0,2899	0,04755614	4,755614
0,28285	0,04768331	4,768331
0,27575	0,04781004	4,781004
0,2687	0,04793477	4,793477
0,2616	0,04805825	4,805825
0,25455	0,04817902	4,817902
0,24745	0,04829854	4,829854
0,2404	0,04841537	4,841537
0,23335	0,04853111	4,853111
0,22625	0,04864611	4,864611
0,2192	0,04875894	4,875894
0,2121	0,04887087	4,887087
0,20505	0,04898034	4,898034
0,198	0,04908838	4,908838
0,1909	0,04919501	4,919501
0,18385	0,04929952	4,929952
0,17675	0,04940306	4,940306
0,1697	0,04950383	4,950383
0,16265	0,04960313	4,960313
0,15555	0,0497006	4,97006
0,1485	0,04979594	4,979594
0,1414	0,04988939	4,988939
0,13435	0,04997946	4,997946
0,12725	0,05006734	5,006734
0,1202	0,05015191	5,015191
0,11315	0,05023264	5,023264
0,10605	0,05031098	5,031098
0,099	0,05038541	5,038541
0,0919	0,05045626	5,045626
0,08485	0,05052317	5,052317
0,0778	0,05058569	5,058569
0,0707	0,05064476	5,064476
0,06365	0,05069904	5,069904
0,05655	0,05075019	5,075019
0,0495	0,05079596	5,079596
0,0424	0,05083778	5,083778
0,03535	0,05087547	5,087547
0,0283	0,05090883	5,090883
0,0212	0,05093905	5,093905
0,01415	0,05096481	5,096481
0,00705	0,05098777	5,098777
0	0,05100826	5,100826

File: IBC_konst_400nmTiO2-70deg 2022-09-16 13-32-53.txt
Device Id	Operator	Recipe
IBC_konst_400nmTiO2-70deg	IS	ANA test,IV

Sample Area	Irradiance	Pre sweep delay	Bias Direction	Max Reverse Bias	Max Forward Bias	Num Sweep Points	Dwell Time	Current Limit	PVIV 10A I-AMP	Average	Dark Current	Rshunt V-Lo	Rshunt V-Hi
4,3681	1	0,5	0	0	0,7	100	50	200	0	0	0	-0,6	-0,1

Voc V	Isc A	Jsc mA/cm2	Imax A	Vmax V	Pmax mW	Fill Factor	Efficiency	R at Voc	R at Isc	Power W	RShunt ohms	Cell Temp start	Cell Temp end	Exposure	Time	Date
0,55503719	0,03001698	6,87186168	0,02541345	0,44220728	11,23801141	67,4529	2,5727	1,96767	2059,574	0,01478273	NaN	NaN	NaN	13,018	13:32:53	09/16/2022

Vmeas	Imeas
0,7	-0,1996695	-19,96695
0,69295	-0,1996682	-19,96682
0,68585	-0,1931403	-19,31403
0,6788	-0,1751681	-17,51681
0,6717	-0,1579775	-15,79775
0,66465	-0,1417459	-14,17459
0,6576	-0,1264995	-12,64995
0,6505	-0,1120119	-11,20119
0,64345	-0,09886445	-9,886445
0,63635	-0,08621462	-8,621462
0,6293	-0,07454306	-7,454306
0,6222	-0,06373062	-6,373062
0,61515	-0,05389341	-5,389341
0,6081	-0,04485346	-4,485346
0,601	-0,03659081	-3,659081
0,59395	-0,02914243	-2,914243
0,58685	-0,02239256	-2,239256
0,5798	-0,01638925	-1,638925
0,57275	-0,0109869	-1,09869
0,56565	-0,00617051	-0,617051
0,5586	-0,00188091	-0,188091
0,5515	0,0019481	0,19481
0,54445	0,00530035	0,530035
0,53735	0,00830062	0,830062
0,5303	0,01088226	1,088226
0,52325	0,01318074	1,318074
0,51615	0,01520408	1,520408
0,5091	0,01696134	1,696134
0,502	0,01850015	1,850015
0,49495	0,0198242	1,98242
0,4879	0,02097726	2,097726
0,4808	0,02197735	2,197735
0,47375	0,0228352	2,28352
0,46665	0,02357613	2,357613
0,4596	0,02420636	2,420636
0,4525	0,02475334	2,475334
0,44545	0,02522111	2,522111
0,4384	0,02562447	2,562447
0,4313	0,02597594	2,597594
0,42425	0,02628012	2,628012
0,41715	0,02654983	2,654983
0,4101	0,02678816	2,678816
0,40305	0,0270017	2,70017
0,39595	0,02719609	2,719609
0,3889	0,02737198	2,737198
0,3818	0,02753597	2,753597
0,37475	0,02768795	2,768795
0,3677	0,02783081	2,783081
0,3606	0,02796642	2,796642
0,35355	0,02809389	2,809389
0,34645	0,02821738	2,821738
0,3394	0,02833453	2,833453
0,3323	0,02844812	2,844812
0,32525	0,02855709	2,855709
0,3182	0,02866139	2,866139
0,3111	0,02876305	2,876305
0,30405	0,02886024	2,886024
0,29695	0,02895428	2,895428
0,2899	0,02904425	2,904425
0,28285	0,02912978	2,912978
0,27575	0,02921251	2,921251
0,2687	0,02929074	2,929074
0,2616	0,02936479	2,936479
0,25455	0,02943438	2,943438
0,24745	0,02949967	2,949967
0,2404	0,0295597	2,95597
0,23335	0,0296152	2,96152
0,22625	0,02966578	2,966578
0,2192	0,02971127	2,971127
0,2121	0,02975185	2,975185
0,20505	0,02978696	2,978696
0,198	0,02981766	2,981766
0,1909	0,02984427	2,984427
0,18385	0,02986762	2,986762
0,17675	0,02988735	2,988735
0,1697	0,0299039	2,99039
0,16265	0,02991762	2,991762
0,15555	0,02992942	2,992942
0,1485	0,02993899	2,993899
0,1414	0,02994713	2,994713
0,13435	0,02995402	2,995402
0,12725	0,02995947	2,995947
0,1202	0,02996477	2,996477
0,11315	0,02996888	2,996888
0,10605	0,02997327	2,997327
0,099	0,02997665	2,997665
0,0919	0,02997983	2,997983
0,08485	0,02998254	2,998254
0,0778	0,02998518	2,998518
0,0707	0,0299876	2,99876
0,06365	0,02999017	2,999017
0,05655	0,02999225	2,999225
0,0495	0,02999496	2,999496
0,0424	0,02999729	2,999729
0,03535	0,02999874	2,999874
0,0283	0,03000035	3,000035
0,0212	0,03000204	3,000204
0,01415	0,03000437	3,000437
0,00705	0,03000619	3,000619
0	0,03000824	3,000824

File: IBC_konst_400nmTiO2-80deg 2022-09-16 13-33-31.txt
Device Id	Operator	Recipe
IBC_konst_400nmTiO2-80deg	IS	ANA test,IV

Sample Area	Irradiance	Pre sweep delay	Bias Direction	Max Reverse Bias	Max Forward Bias	Num Sweep Points	Dwell Time	Current Limit	PVIV 10A I-AMP	Average	Dark Current	Rshunt V-Lo	Rshunt V-Hi
4,3681	1	0,5	0	0	0,7	100	50	200	0	0	0	-0,6	-0,1

Voc V	Isc A	Jsc mA/cm2	Imax A	Vmax V	Pmax mW	Fill Factor	Efficiency	R at Voc	R at Isc	Power W	RShunt ohms	Cell Temp start	Cell Temp end	Exposure	Time	Date
0,51707052	0,01032119	2,36285552	0,00934219	0,41509591	3,8779067	72,6638	0,8878	4,439376	10702,258	0,00488721	NaN	NaN	NaN	13,137	13:33:31	09/16/2022

Vmeas	Imeas
0,7	-0,1996749	-19,96749
0,69295	-0,1996771	-19,96771
0,68585	-0,1963258	-19,63258
0,6788	-0,1786985	-17,86985
0,6717	-0,1618973	-16,18973
0,66465	-0,1460984	-14,60984
0,6576	-0,1313059	-13,13059
0,6505	-0,1173271	-11,73271
0,64345	-0,1043627	-10,43627
0,63635	-0,09251136	-9,251136
0,6293	-0,08141996	-8,141996
0,6222	-0,07120876	-7,120876
0,61515	-0,06197774	-6,197774
0,6081	-0,05355179	-5,355179
0,601	-0,04590383	-4,590383
0,59395	-0,0390613	-3,90613
0,58685	-0,0329047	-3,29047
0,5798	-0,02747003	-2,747003
0,57275	-0,02261479	-2,261479
0,56565	-0,01829566	-1,829566
0,5586	-0,01450055	-1,450055
0,5515	-0,0111369	-1,11369
0,54445	-0,00821783	-0,821783
0,53735	-0,00561946	-0,561946
0,5303	-0,00338405	-0,338405
0,52325	-0,0014268	-0,14268
0,51615	0,00028262	0,028262
0,5091	0,00175498	0,175498
0,502	0,00302937	0,302937
0,49495	0,00411429	0,411429
0,4879	0,00504926	0,504926
0,4808	0,00585033	0,585033
0,47375	0,00652887	0,652887
0,46665	0,00710747	0,710747
0,4596	0,00759254	0,759254
0,4525	0,00800693	0,800693
0,44545	0,0083555	0,83555
0,4384	0,00865041	0,865041
0,4313	0,00890146	0,890146
0,42425	0,00911274	0,911274
0,41715	0,00929452	0,929452
0,4101	0,00944863	0,944863
0,40305	0,00958029	0,958029
0,39595	0,00969353	0,969353
0,3889	0,00978967	0,978967
0,3818	0,00987257	0,987257
0,37475	0,00994288	0,994288
0,3677	0,01000255	1,000255
0,3606	0,01005328	1,005328
0,35355	0,01009546	1,009546
0,34645	0,01013073	1,013073
0,3394	0,01015997	1,015997
0,3323	0,01018435	1,018435
0,32525	0,01020403	1,020403
0,3182	0,01022012	1,022012
0,3111	0,01023355	1,023355
0,30405	0,01024451	1,024451
0,29695	0,01025369	1,025369
0,2899	0,01026118	1,026118
0,28285	0,01026751	1,026751
0,27575	0,01027282	1,027282
0,2687	0,01027729	1,027729
0,2616	0,01028117	1,028117
0,25455	0,01028438	1,028438
0,24745	0,01028705	1,028705
0,2404	0,0102893	1,02893
0,23335	0,01029141	1,029141
0,22625	0,01029356	1,029356
0,2192	0,01029531	1,029531
0,2121	0,01029697	1,029697
0,20505	0,01029829	1,029829
0,198	0,01029961	1,029961
0,1909	0,01030092	1,030092
0,18385	0,01030206	1,030206
0,17675	0,01030315	1,030315
0,1697	0,01030411	1,030411
0,16265	0,01030501	1,030501
0,15555	0,0103059	1,03059
0,1485	0,01030676	1,030676
0,1414	0,01030755	1,030755
0,13435	0,01030825	1,030825
0,12725	0,01030925	1,030925
0,1202	0,01031009	1,031009
0,11315	0,01031084	1,031084
0,10605	0,01031165	1,031165
0,099	0,0103123	1,03123
0,0919	0,01031298	1,031298
0,08485	0,01031349	1,031349
0,0778	0,0103141	1,03141
0,0707	0,01031475	1,031475
0,06365	0,01031544	1,031544
0,05655	0,01031601	1,031601
0,0495	0,0103166	1,03166
0,0424	0,01031707	1,031707
0,03535	0,01031784	1,031784
0,0283	0,01031841	1,031841
0,0212	0,01031913	1,031913
0,01415	0,01031979	1,031979
0,00705	0,01032041	1,032041
0	0,01032084	1,032084

File: IBC_konst_400nmTiO2-90deg 2022-09-16 13-34-31.txt
Device Id	Operator	Recipe
IBC_konst_400nmTiO2-90deg	IS	ANA test,IV

Sample Area	Irradiance	Pre sweep delay	Bias Direction	Max Reverse Bias	Max Forward Bias	Num Sweep Points	Dwell Time	Current Limit	PVIV 10A I-AMP	Average	Dark Current	Rshunt V-Lo	Rshunt V-Hi
4,3681	1	0,5	0	0	0,7	100	50	200	0	0	0	-0,6	-0,1

Voc V	Isc A	Jsc mA/cm2	Imax A	Vmax V	Pmax mW	Fill Factor	Efficiency	R at Voc	R at Isc	Power W	RShunt ohms	Cell Temp start	Cell Temp end	Exposure	Time	Date
0,45268096	0,00140872	0,3225014	0,00127888	0,37125609	0,47479139	74,4537	0,1087	26,561111	36997,694	0,00058794	NaN	NaN	NaN	13,472	13:34:31	09/16/2022

Vmeas	Imeas
0,7	-0,1996857	-19,96857
0,69295	-0,199684	-19,9684
0,68585	-0,1940271	-19,40271
0,6788	-0,1767656	-17,67656
0,6717	-0,1603598	-16,03598
0,66465	-0,1449732	-14,49732
0,6576	-0,1306118	-13,06118
0,6505	-0,1170807	-11,70807
0,64345	-0,1045776	-10,45776
0,63635	-0,09317207	-9,317207
0,6293	-0,08255729	-8,255729
0,6222	-0,07282532	-7,282532
0,61515	-0,06406407	-6,406407
0,6081	-0,05610123	-5,610123
0,601	-0,04890792	-4,890792
0,59395	-0,04250026	-4,250026
0,58685	-0,0367623	-3,67623
0,5798	-0,03172064	-3,172064
0,57275	-0,02723862	-2,723862
0,56565	-0,02327061	-2,327061
0,5586	-0,01980195	-1,980195
0,5515	-0,01674433	-1,674433
0,54445	-0,01410118	-1,410118
0,53735	-0,01176628	-1,176628
0,5303	-0,00976854	-0,976854
0,52325	-0,00803084	-0,803084
0,51615	-0,00652617	-0,652617
0,5091	-0,00524054	-0,524054
0,502	-0,00413583	-0,413583
0,49495	-0,00320412	-0,320412
0,4879	-0,00240984	-0,240984
0,4808	-0,00173757	-0,173757
0,47375	-0,00117613	-0,117613
0,46665	-0,00070494	-0,070494
0,4596	-0,00031721	-0,031721
0,4525	0,00000681	0,000681
0,44545	0,00027224	0,027224
0,4384	0,0004883	0,04883
0,4313	0,00066516	0,066516
0,42425	0,0008072	0,08072
0,41715	0,00092318	0,092318
0,4101	0,00101573	0,101573
0,40305	0,00109027	0,109027
0,39595	0,00115006	0,115006
0,3889	0,00119738	0,119738
0,3818	0,00123564	0,123564
0,37475	0,00126611	0,126611
0,3677	0,00129053	0,129053
0,3606	0,00131025	0,131025
0,35355	0,001326	0,1326
0,34645	0,00133884	0,133884
0,3394	0,00134915	0,134915
0,3323	0,00135764	0,135764
0,32525	0,00136457	0,136457
0,3182	0,00137024	0,137024
0,3111	0,00137502	0,137502
0,30405	0,00137905	0,137905
0,29695	0,00138243	0,138243
0,2899	0,00138529	0,138529
0,28285	0,00138771	0,138771
0,27575	0,00138981	0,138981
0,2687	0,00139161	0,139161
0,2616	0,00139319	0,139319
0,25455	0,00139454	0,139454
0,24745	0,00139572	0,139572
0,2404	0,00139681	0,139681
0,23335	0,00139775	0,139775
0,22625	0,00139865	0,139865
0,2192	0,00139943	0,139943
0,2121	0,00140012	0,140012
0,20505	0,00140079	0,140079
0,198	0,0014014	0,14014
0,1909	0,00140194	0,140194
0,18385	0,00140241	0,140241
0,17675	0,00140283	0,140283
0,1697	0,00140319	0,140319
0,16265	0,00140355	0,140355
0,15555	0,00140393	0,140393
0,1485	0,00140429	0,140429
0,1414	0,00140459	0,140459
0,13435	0,00140488	0,140488
0,12725	0,00140515	0,140515
0,1202	0,00140545	0,140545
0,11315	0,00140569	0,140569
0,10605	0,00140588	0,140588
0,099	0,00140606	0,140606
0,0919	0,00140629	0,140629
0,08485	0,00140649	0,140649
0,0778	0,00140671	0,140671
0,0707	0,00140689	0,140689
0,06365	0,0014071	0,14071
0,05655	0,00140729	0,140729
0,0495	0,00140747	0,140747
0,0424	0,00140762	0,140762
0,03535	0,00140777	0,140777
0,0283	0,00140794	0,140794
0,0212	0,0014081	0,14081
0,01415	0,00140824	0,140824
0,00705	0,00140843	0,140843
0	0,00140862	0,140862

File: IBC_konst_500nmTiO2-10deg 2022-09-16 13-45-13.txt
Device Id	Operator	Recipe
IBC_konst_500nmTiO2-10deg	IS	ANA test,IV

Sample Area	Irradiance	Pre sweep delay	Bias Direction	Max Reverse Bias	Max Forward Bias	Num Sweep Points	Dwell Time	Current Limit	PVIV 10A I-AMP	Average	Dark Current	Rshunt V-Lo	Rshunt V-Hi
4,3681	1	0,5	0	0	0,7	100	50	200	0	0	0	-0,6	-0,1

Voc V	Isc A	Jsc mA/cm2	Imax A	Vmax V	Pmax mW	Fill Factor	Efficiency	R at Voc	R at Isc	Power W	RShunt ohms	Cell Temp start	Cell Temp end	Exposure	Time	Date
0,60625443	0,12618038	28,88678913	0,1152037	0,47900028	55,18260375	72,1366	12,6331	0,53149	1265,34	0,06958659	NaN	NaN	NaN	13,142	13:45:13	09/16/2022

Vmeas	Imeas
0,7	-0,2000248	-20,00248
0,69295	-0,2000274	-20,00274
0,68585	-0,2000277	-20,00277
0,6788	-0,1960205	-19,60205
0,6717	-0,1721026	-17,21026
0,66465	-0,1493174	-14,93174
0,6576	-0,1273266	-12,73266
0,6505	-0,1062019	-10,62019
0,64345	-0,08701809	-8,701809
0,63635	-0,06787728	-6,787728
0,6293	-0,04988885	-4,988885
0,6222	-0,03291411	-3,291411
0,61515	-0,01719066	-1,719066
0,6081	-0,00289278	-0,289278
0,601	0,01014388	1,014388
0,59395	0,02276713	2,276713
0,58685	0,03438293	3,438293
0,5798	0,04485663	4,485663
0,57275	0,05439981	5,439981
0,56565	0,06304723	6,304723
0,5586	0,07076948	7,076948
0,5515	0,07771846	7,771846
0,54445	0,08383881	8,383881
0,53735	0,08934785	8,934785
0,5303	0,09414517	9,414517
0,52325	0,09839715	9,839715
0,51615	0,1021526	10,21526
0,5091	0,1053013	10,53013
0,502	0,1081875	10,81875
0,49495	0,110675	11,0675
0,4879	0,1128654	11,28654
0,4808	0,1147797	11,47797
0,47375	0,1164163	11,64163
0,46665	0,1178444	11,78444
0,4596	0,1190615	11,90615
0,4525	0,1201197	12,01197
0,44545	0,1210165	12,10165
0,4384	0,121782	12,1782
0,4313	0,1224349	12,24349
0,42425	0,1229878	12,29878
0,41715	0,1234566	12,34566
0,4101	0,123847	12,3847
0,40305	0,1241834	12,41834
0,39595	0,1244672	12,44672
0,3889	0,1247018	12,47018
0,3818	0,1249041	12,49041
0,37475	0,1250676	12,50676
0,3677	0,1252063	12,52063
0,3606	0,1253262	12,53262
0,35355	0,1254275	12,54275
0,34645	0,1255103	12,55103
0,3394	0,1255788	12,55788
0,3323	0,1256373	12,56373
0,32525	0,1256903	12,56903
0,3182	0,1257336	12,57336
0,3111	0,1257714	12,57714
0,30405	0,1258042	12,58042
0,29695	0,1258323	12,58323
0,2899	0,1258546	12,58546
0,28285	0,1258748	12,58748
0,27575	0,125887	12,5887
0,2687	0,1259097	12,59097
0,2616	0,1259194	12,59194
0,25455	0,1259366	12,59366
0,24745	0,1259501	12,59501
0,2404	0,1259576	12,59576
0,23335	0,1259741	12,59741
0,22625	0,1259812	12,59812
0,2192	0,1259883	12,59883
0,2121	0,1259975	12,59975
0,20505	0,126003	12,6003
0,198	0,1260131	12,60131
0,1909	0,126019	12,6019
0,18385	0,126027	12,6027
0,17675	0,1260353	12,60353
0,1697	0,1260426	12,60426
0,16265	0,1260514	12,60514
0,15555	0,1260525	12,60525
0,1485	0,1260636	12,60636
0,1414	0,126069	12,6069
0,13435	0,1260753	12,60753
0,12725	0,1260804	12,60804
0,1202	0,1260909	12,60909
0,11315	0,1260921	12,60921
0,10605	0,1260993	12,60993
0,099	0,1261039	12,61039
0,0919	0,1261128	12,61128
0,08485	0,1261127	12,61127
0,0778	0,1261162	12,61162
0,0707	0,1261275	12,61275
0,06365	0,1261346	12,61346
0,05655	0,1261371	12,61371
0,0495	0,1261435	12,61435
0,0424	0,1261476	12,61476
0,03535	0,1261527	12,61527
0,0283	0,1261565	12,61565
0,0212	0,1261615	12,61615
0,01415	0,1261687	12,61687
0,00705	0,1261708	12,61708
0	0,1261754	12,61754

File: IBC_konst_500nmTiO2-20deg 2022-09-16 13-45-52.txt
Device Id	Operator	Recipe
IBC_konst_500nmTiO2-20deg	IS	ANA test,IV

Sample Area	Irradiance	Pre sweep delay	Bias Direction	Max Reverse Bias	Max Forward Bias	Num Sweep Points	Dwell Time	Current Limit	PVIV 10A I-AMP	Average	Dark Current	Rshunt V-Lo	Rshunt V-Hi
4,3681	1	0,5	0	0	0,7	100	50	200	0	0	0	-0,6	-0,1

Voc V	Isc A	Jsc mA/cm2	Imax A	Vmax V	Pmax mW	Fill Factor	Efficiency	R at Voc	R at Isc	Power W	RShunt ohms	Cell Temp start	Cell Temp end	Exposure	Time	Date
0,60355293	0,12266404	28,08178407	0,11202283	0,47737164	53,4765244	72,2321	12,2425	0,520462	1443,829	0,06739011	NaN	NaN	NaN	13,139	13:45:52	09/16/2022

Vmeas	Imeas
0,7	-0,2000205	-20,00205
0,69295	-0,2000195	-20,00195
0,68585	-0,2000233	-20,00233
0,6788	-0,2000271	-20,00271
0,6717	-0,1791205	-17,91205
0,66465	-0,1561769	-15,61769
0,6576	-0,1340146	-13,40146
0,6505	-0,1127142	-11,27142
0,64345	-0,09334175	-9,334175
0,63635	-0,07401386	-7,401386
0,6293	-0,05584466	-5,584466
0,6222	-0,03868731	-3,868731
0,61515	-0,02277726	-2,277726
0,6081	-0,00830474	-0,830474
0,601	0,00562978	0,562978
0,59395	0,01778928	1,778928
0,58685	0,02956877	2,956877
0,5798	0,0401946	4,01946
0,57275	0,04987844	4,987844
0,56565	0,05865555	5,865555
0,5586	0,06649758	6,649758
0,5515	0,07355227	7,355227
0,54445	0,07976811	7,976811
0,53735	0,08536243	8,536243
0,5303	0,09023505	9,023505
0,52325	0,0945536	9,45536
0,51615	0,09836812	9,836812
0,5091	0,1016947	10,16947
0,502	0,1046192	10,46192
0,49495	0,1070299	10,70299
0,4879	0,1092472	10,92472
0,4808	0,1111781	11,11781
0,47375	0,1128497	11,28497
0,46665	0,1142947	11,42947
0,4596	0,1155273	11,55273
0,4525	0,1165973	11,65973
0,44545	0,1175109	11,75109
0,4384	0,1182806	11,82806
0,4313	0,1189462	11,89462
0,42425	0,1194961	11,94961
0,41715	0,1199758	11,99758
0,4101	0,1203659	12,03659
0,40305	0,1207014	12,07014
0,39595	0,1209848	12,09848
0,3889	0,121221	12,1221
0,3818	0,121422	12,1422
0,37475	0,1215893	12,15893
0,3677	0,1217298	12,17298
0,3606	0,1218475	12,18475
0,35355	0,1219484	12,19484
0,34645	0,1220325	12,20325
0,3394	0,1220967	12,20967
0,3323	0,1221581	12,21581
0,32525	0,1222077	12,22077
0,3182	0,1222502	12,22502
0,3111	0,122286	12,2286
0,30405	0,1223167	12,23167
0,29695	0,1223453	12,23453
0,2899	0,1223645	12,23645
0,28285	0,1223856	12,23856
0,27575	0,1224028	12,24028
0,2687	0,1224158	12,24158
0,2616	0,1224336	12,24336
0,25455	0,1224482	12,24482
0,24745	0,12246	12,246
0,2404	0,122468	12,2468
0,23335	0,1224807	12,24807
0,22625	0,1224852	12,24852
0,2192	0,1224949	12,24949
0,2121	0,1225041	12,25041
0,20505	0,1225113	12,25113
0,198	0,1225184	12,25184
0,1909	0,122523	12,2523
0,18385	0,1225315	12,25315
0,17675	0,1225403	12,25403
0,1697	0,1225412	12,25412
0,16265	0,1225475	12,25475
0,15555	0,1225542	12,25542
0,1485	0,1225584	12,25584
0,1414	0,1225652	12,25652
0,13435	0,1225719	12,25719
0,12725	0,1225765	12,25765
0,1202	0,1225841	12,25841
0,11315	0,12259	12,259
0,10605	0,122595	12,2595
0,099	0,1226009	12,26009
0,0919	0,1225983	12,25983
0,08485	0,1226092	12,26092
0,0778	0,1226109	12,26109
0,0707	0,122616	12,2616
0,06365	0,1226218	12,26218
0,05655	0,1226286	12,26286
0,0495	0,122632	12,2632
0,0424	0,1226314	12,26314
0,03535	0,122642	12,2642
0,0283	0,122645	12,2645
0,0212	0,1226479	12,26479
0,01415	0,1226504	12,26504
0,00705	0,1226543	12,26543
0	0,1226605	12,26605